id,dt,accel_x,accel_y,accel_z,accel_angle_x,accel_angle_y,accel_angle_z,angle_x,angle_y,angle_z
0,0.0,-0.02,-0.05,-0.11,-2.24,5.28,0.0,-0.09,0.21,-0.0
1,0.018,0.03,0.07,-0.04,-1.62,4.99,0.0,-0.15,0.4,-0.01
2,0.025,0.03,-0.13,0.08,-2.6,4.91,0.0,-0.24,0.59,0.0
3,0.025999999,-0.1,-0.0,-0.14,-1.99,5.74,0.0,-0.27,0.79,-0.05
4,0.027,-0.06,0.02,0.04,-1.87,5.39,0.0,-0.35,0.98,-0.06
5,0.025,-0.02,-0.01,0.02,-2.0,5.22,0.0,-0.45,1.13,-0.04
6,0.027,-0.06,-0.15,0.07,-2.72,5.38,0.0,-0.54,1.29,-0.1
7,0.027,-0.07,-0.0,-0.04,-1.98,5.51,0.0,-0.58,1.45,-0.16
8,0.025999999,0.05,-0.03,0.05,-2.12,4.84,0.0,-0.65,1.58,-0.14
9,0.025999999,0.22,0.1,-0.1,-1.45,4.02,0.0,-0.65,1.68,-0.14
10,0.025,-0.05,0.13,-0.13,-1.27,5.46,0.0,-0.68,1.84,-0.15
11,0.027,-0.01,-0.1,0.02,-2.48,5.17,0.0,-0.79,1.94,-0.25
12,0.027,-0.17,-0.24,0.17,-3.14,5.89,0.0,-0.89,2.11,-0.29
13,0.025,-0.16,-0.05,0.18,-2.16,5.85,0.0,-0.9,2.22,-0.34
14,0.027,0.13,0.11,-0.03,-1.4,4.47,0.0,-0.87,2.28,-0.4
15,0.025999999,0.05,-0.01,0.03,-2.01,4.85,0.0,-0.92,2.38,-0.44
16,0.025999999,-0.03,-0.0,0.07,-1.95,5.24,0.0,-0.93,2.49,-0.49
17,0.027,0.08,0.0,-0.04,-1.96,4.7,0.0,-0.9,2.58,-0.59
18,0.025,-0.03,0.03,-0.05,-1.79,5.31,0.0,-0.97,2.69,-0.59
19,0.027,-0.07,-0.04,0.04,-2.14,5.47,0.0,-1.02,2.83,-0.58
20,0.025999999,-0.07,0.1,0.05,-1.43,5.45,0.0,-1.06,2.94,-0.49
21,0.025999999,-0.19,-0.01,-0.05,-2.01,6.14,0.0,-1.1,3.06,-0.47
22,0.027,0.02,-0.01,0.05,-2.0,5.01,0.0,-1.13,3.09,-0.58
23,0.025,0.02,0.0,0.03,-1.94,5.0,0.0,-1.12,3.19,-0.56
24,0.025999999,0.07,0.0,0.02,-1.93,4.74,0.0,-1.13,3.22,-0.62
25,0.025999999,0.08,-0.0,-0.0,-1.96,4.7,0.0,-1.15,3.27,-0.65
26,0.025999999,-0.01,-0.03,-0.01,-2.1,5.19,0.0,-1.17,3.35,-0.69
27,0.027,0.08,0.05,-0.17,-1.7,4.8,0.0,-1.2,3.41,-0.7
28,0.025,-0.11,0.06,-0.08,-1.67,5.73,0.0,-1.2,3.52,-0.72
29,0.027,-0.06,-0.06,0.15,-2.23,5.34,0.0,-1.24,3.55,-0.76
30,0.025999999,-0.01,0.04,-0.12,-1.79,5.21,0.0,-1.22,3.59,-0.81
31,0.025999999,0.03,-0.06,0.11,-2.25,4.94,0.0,-1.24,3.6,-0.89
32,0.025999999,0.11,-0.06,0.0,-2.28,4.52,0.0,-1.3,3.64,-0.87
33,0.025999999,-0.01,0.13,-0.11,-1.28,5.26,0.0,-1.28,3.73,-0.89
34,0.025999999,0.06,0.05,0.09,-1.66,4.77,0.0,-1.3,3.77,-0.88
35,0.027,0.07,0.01,0.05,-1.89,4.72,0.0,-1.29,3.8,-0.97
36,0.025,-0.13,-0.09,0.1,-2.39,5.73,0.0,-1.29,3.87,-1.01
37,0.025999999,0.03,-0.0,0.12,-1.95,4.93,0.0,-1.24,3.92,-1.04
38,0.027,-0.08,0.04,-0.03,-1.77,5.57,0.0,-1.2,3.95,-1.11
39,0.025,0.1,0.1,-0.02,-1.42,4.63,0.0,-1.17,3.92,-1.19
40,0.027,0.2,0.02,0.03,-1.83,4.06,0.0,-1.2,3.93,-1.19
41,0.025,0.14,0.03,-0.05,-1.8,4.43,0.0,-1.2,3.95,-1.19
42,0.025999999,0.04,0.1,-0.05,-1.42,4.92,0.0,-1.21,3.98,-1.28
43,0.027,-0.03,-0.07,0.12,-2.28,5.22,0.0,-1.27,4.01,-1.32
44,0.025,-0.01,0.05,0.06,-1.69,5.14,0.0,-1.29,4.04,-1.33
45,0.027,0.05,0.13,-0.01,-1.28,4.85,0.0,-1.27,4.08,-1.33
46,0.025,0.11,0.08,0.02,-1.52,4.53,0.0,-1.34,4.11,-1.29
47,0.025999999,0.04,0.08,-0.06,-1.54,4.93,0.0,-1.35,4.13,-1.32
48,0.027,0.06,0.09,0.11,-1.48,4.75,0.0,-1.4,4.14,-1.31
49,0.025,-0.04,-0.1,0.19,-2.45,5.22,0.0,-1.5,4.17,-1.32
50,0.025999999,0.0,-0.14,0.22,-2.65,5.0,0.0,-1.56,4.22,-1.31
51,0.025999999,-0.03,-0.07,-0.03,-2.36,5.28,0.0,-1.54,4.25,-1.29
52,0.027,0.18,0.3,-0.22,-0.41,4.26,0.0,-1.43,4.25,-1.34
53,0.025999999,0.12,0.08,-0.09,-1.54,4.54,0.0,-1.46,4.27,-1.44
54,0.025999999,-0.04,-0.1,0.12,-2.47,5.25,0.0,-1.58,4.32,-1.35
55,0.025999999,-0.02,-0.07,0.19,-2.26,5.16,0.0,-1.56,4.29,-1.4
56,0.027,0.04,0.11,-0.07,-1.39,4.96,0.0,-1.52,4.28,-1.42
57,0.025,0.24,0.23,-0.02,-0.77,3.87,0.0,-1.49,4.28,-1.42
58,0.027,0.05,0.08,0.17,-1.52,4.78,0.0,-1.51,4.27,-1.52
59,0.025,0.07,-0.02,0.14,-2.01,4.72,0.0,-1.5,4.33,-1.59
60,0.025999999,-0.06,-0.0,0.14,-1.94,5.37,0.0,-1.48,4.41,-1.61
61,0.027,0.01,-0.02,0.07,-2.05,5.04,0.0,-1.48,4.47,-1.58
62,0.025,0.11,-0.09,0.05,-2.42,4.54,0.0,-1.45,4.45,-1.59
63,0.027,0.06,0.11,-0.13,-1.4,4.87,0.0,-1.41,4.49,-1.59
64,0.025,0.12,0.16,-0.16,-1.14,4.57,0.0,-1.43,4.49,-1.58
65,0.025999999,-0.03,0.12,0.11,-1.32,5.23,0.0,-1.46,4.5,-1.59
66,0.027,-0.04,-0.01,-0.04,-2.01,5.35,0.0,-1.49,4.52,-1.6
67,0.025999999,-0.04,0.08,-0.03,-1.54,5.34,0.0,-1.5,4.55,-1.62
68,0.025999999,0.06,0.13,-0.07,-1.29,4.86,0.0,-1.56,4.54,-1.63
69,0.025999999,-0.01,-0.05,0.09,-2.22,5.11,0.0,-1.59,4.58,-1.73
70,0.025999999,-0.18,-0.06,-0.0,-2.25,6.06,0.0,-1.59,4.68,-1.8
71,0.027,-0.07,0.19,-0.2,-0.96,5.59,0.0,-1.55,4.74,-1.84
72,0.025999999,-0.14,0.14,-0.02,-1.21,5.87,0.0,-1.63,4.83,-1.79
73,0.027,-0.2,-0.02,0.11,-2.01,6.09,0.0,-1.72,4.87,-1.83
74,0.025999999,-0.05,-0.07,0.09,-2.33,5.35,0.0,-1.79,4.85,-1.85
75,0.025999999,0.07,0.06,0.07,-1.64,4.71,0.0,-1.81,4.81,-1.84
76,0.025999999,0.12,0.05,0.05,-1.68,4.45,0.0,-1.84,4.73,-1.88
77,0.025,0.18,-0.01,0.19,-1.97,4.09,0.0,-1.87,4.71,-1.86
78,0.025999999,-0.05,-0.06,0.15,-2.22,5.31,0.0,-1.85,4.74,-1.92
79,0.027,0.15,0.01,0.08,-1.89,4.31,0.0,-1.81,4.72,-1.93
80,0.025,-0.01,-0.05,0.11,-2.2,5.11,0.0,-1.82,4.77,-1.93
81,0.027,0.13,-0.11,0.11,-2.52,4.38,0.0,-1.82,4.78,-1.96
82,0.025,0.11,-0.1,0.2,-2.43,4.44,0.0,-1.83,4.77,-1.99
83,0.027,0.14,-0.0,0.04,-1.96,4.4,0.0,-1.77,4.77,-2.06
84,0.025999999,0.1,0.05,-0.03,-1.68,4.59,0.0,-1.72,4.78,-2.07
85,0.025,-0.05,0.17,-0.12,-1.08,5.46,0.0,-1.7,4.75,-2.1
86,0.027,0.03,0.03,-0.02,-1.79,4.99,0.0,-1.76,4.69,-2.02
87,0.025,-0.01,0.14,-0.12,-1.25,5.23,0.0,-1.78,4.64,-2.02
88,0.027,0.01,-0.04,0.06,-2.16,5.05,0.0,-1.82,4.57,-2.05
89,0.027,0.21,-0.01,0.03,-2.0,4.03,0.0,-1.86,4.5,-2.05
90,0.025,0.04,-0.02,0.02,-2.06,4.89,0.0,-1.9,4.53,-2.04
91,0.025999999,-0.06,0.12,0.04,-1.32,5.4,0.0,-1.82,4.58,-2.15
92,0.027,-0.04,0.09,-0.09,-1.5,5.39,0.0,-1.78,4.64,-2.22
93,0.025,-0.15,0.21,-0.13,-0.87,5.99,0.0,-1.73,4.73,-2.3
94,0.027,-0.12,0.05,-0.03,-1.68,5.78,0.0,-1.77,4.82,-2.32
95,0.025999999,-0.27,0.04,0.04,-1.75,6.49,0.0,-1.75,4.88,-2.42
96,0.025999999,-0.08,-0.04,-0.05,-2.16,5.55,0.0,-1.9,4.54,-2.29
97,0.027,0.17,-0.01,0.07,-1.99,4.22,0.0,-1.95,4.2,-2.22
98,0.025,0.27,0.09,0.07,-1.49,3.66,0.0,-1.98,3.7,-2.35
99,0.025999999,0.27,0.01,0.05,-1.91,3.68,0.0,-2.07,3.07,-2.64
100,0.025999999,0.38,-0.19,0.3,-2.91,3.04,0.0,-2.18,2.43,-3.07
101,0.025999999,0.42,-0.08,-0.03,-2.42,2.95,0.0,-2.29,1.91,-3.53
102,0.027,0.46,-0.04,-0.02,-2.16,2.72,0.0,-2.42,1.49,-3.81
103,0.025999999,0.72,-0.16,0.15,-2.76,1.32,0.0,-2.55,1.18,-3.91
104,0.027,0.76,-0.31,0.18,-3.55,1.13,0.0,-2.72,0.77,-3.94
105,0.025,0.91,-0.16,0.04,-2.79,0.31,0.0,-2.8,0.33,-3.92
106,0.027,0.96,-0.14,-0.05,-2.73,0.08,0.0,-2.91,-0.27,-3.93
107,0.027,0.98,-0.27,0.08,-3.36,-0.01,0.0,-3.11,-0.97,-3.94
108,0.025999999,1.26,-0.21,-0.17,-3.13,-1.52,0.0,-3.35,-1.73,-3.79
109,0.027999999,1.26,-0.34,-0.07,-3.78,-1.53,0.0,-3.84,-2.56,-3.52
110,0.027,1.38,-0.41,0.26,-4.01,-2.1,0.0,-4.41,-3.6,-3.37
111,0.025999999,1.76,-0.63,-0.03,-5.26,-4.12,0.0,-5.1,-4.81,-3.32
112,0.027999999,1.88,-0.57,-0.11,-5.01,-4.81,0.0,-5.76,-5.95,-3.14
113,0.027999999,1.96,-0.8,-0.01,-6.12,-5.18,0.0,-6.38,-7.07,-3.13
114,0.025999999,2.26,-0.93,0.01,-6.77,-6.71,0.0,-6.89,-8.17,-3.11
115,0.027999999,2.5,-1.04,-0.12,-7.43,-8.03,0.0,-7.38,-9.4,-3.12
116,0.025999999,2.84,-1.07,0.05,-7.41,-9.62,0.0,-7.68,-10.35,-3.09
117,0.027999999,2.86,-0.98,-0.07,-7.05,-9.83,0.0,-7.78,-11.12,-3.19
118,0.027999999,2.96,-1.07,0.01,-7.43,-10.26,0.0,-7.77,-11.76,-3.29
119,0.027,3.02,-0.92,-0.05,-6.69,-10.65,0.0,-7.66,-12.28,-3.51
120,0.027999999,3.18,-1.05,-0.22,-7.47,-11.64,0.0,-7.61,-12.83,-3.84
121,0.027999999,3.24,-0.98,-0.16,-7.04,-11.86,0.0,-7.56,-13.3,-4.31
122,0.027,3.39,-0.91,-0.23,-6.74,-12.74,0.0,-7.59,-13.77,-4.65
123,0.027999999,3.3,-1.05,-0.19,-7.42,-12.2,0.0,-7.75,-14.25,-4.82
124,0.028999997,3.48,-1.09,-0.28,-7.69,-13.22,0.0,-7.96,-14.96,-5.08
125,0.027,3.63,-1.06,-0.34,-7.54,-14.06,0.0,-8.14,-15.69,-5.33
126,0.027999999,3.76,-1.08,-0.41,-7.67,-14.79,0.0,-8.28,-16.33,-5.62
127,0.027999999,3.88,-1.11,-0.52,-7.88,-15.54,0.0,-8.32,-16.83,-5.93
128,0.027,4.01,-1.25,-0.42,-8.52,-16.07,0.0,-8.42,-17.26,-6.19
129,0.027999999,4.05,-1.19,-0.57,-8.31,-16.48,0.0,-8.5,-17.69,-6.45
130,0.028999997,4.19,-1.13,-0.5,-7.87,-17.12,0.0,-8.55,-18.2,-6.78
131,0.027,4.31,-1.06,-0.53,-7.51,-17.73,0.0,-8.55,-18.53,-6.91
132,0.027999999,4.22,-1.18,-0.33,-8.01,-16.96,0.0,-8.59,-18.98,-7.26
133,0.027999999,4.44,-1.13,-0.53,-7.83,-18.39,0.0,-8.74,-19.75,-7.73
134,0.027,4.47,-1.14,-0.57,-7.91,-18.62,0.0,-8.92,-20.56,-7.89
135,0.027999999,4.71,-1.15,-0.64,-7.95,-19.9,0.0,-9.09,-21.58,-8.06
136,0.027999999,4.95,-1.08,-0.81,-7.68,-21.42,0.0,-9.14,-22.5,-8.12
137,0.027999999,4.92,-1.15,-0.82,-8.06,-21.24,0.0,-9.24,-23.22,-8.18
138,0.027999999,5.3,-1.29,-0.88,-8.67,-23.2,0.0,-9.27,-23.85,-8.2
139,0.027,5.25,-1.26,-0.87,-8.55,-22.91,0.0,-9.19,-24.37,-8.24
140,0.027999999,5.28,-1.3,-0.85,-8.73,-23.01,0.0,-9.14,-25.02,-8.29
141,0.027999999,5.6,-1.23,-1.15,-8.47,-25.18,0.0,-9.15,-25.67,-8.29
142,0.027999999,5.56,-1.22,-1.06,-8.39,-24.82,0.0,-9.14,-26.12,-8.36
143,0.027999999,5.66,-1.2,-1.21,-8.37,-25.63,0.0,-9.11,-26.58,-8.48
144,0.027999999,5.64,-1.18,-1.2,-8.24,-25.52,0.0,-9.05,-26.89,-8.52
145,0.027,5.67,-1.24,-1.15,-8.49,-25.52,0.0,-9.06,-27.1,-8.55
146,0.027999999,5.73,-1.21,-1.13,-8.31,-25.79,0.0,-9.21,-27.43,-8.79
147,0.027999999,5.81,-1.18,-1.33,-8.25,-26.65,0.0,-9.35,-27.88,-9.01
148,0.027999999,5.84,-1.15,-1.16,-8.0,-26.41,0.0,-9.51,-28.43,-9.23
149,0.027999999,6.14,-1.33,-1.2,-8.85,-27.79,0.0,-9.68,-29.09,-9.49
150,0.027999999,6.13,-1.3,-1.4,-8.84,-28.26,0.0,-9.81,-29.62,-9.63
151,0.027,6.31,-1.3,-1.48,-8.84,-29.26,0.0,-9.86,-30.02,-9.72
152,0.027999999,6.25,-1.23,-1.37,-8.38,-28.76,0.0,-9.98,-30.43,-9.91
153,0.027999999,6.36,-1.37,-1.48,-9.14,-29.48,0.0,-10.13,-30.89,-10.05
154,0.027999999,6.39,-1.32,-1.64,-9.01,-30.08,0.0,-10.22,-31.37,-10.27
155,0.028999997,6.52,-1.32,-1.6,-8.94,-30.53,0.0,-10.2,-31.78,-10.44
156,0.028999997,6.55,-1.29,-1.67,-8.77,-30.87,0.0,-10.21,-32.12,-10.61
157,0.027999999,6.59,-1.25,-1.78,-8.66,-31.37,0.0,-10.27,-32.35,-10.67
158,0.028999997,6.82,-1.43,-1.64,-9.4,-31.9,0.0,-10.39,-32.75,-10.9
159,0.028999997,6.6,-1.33,-1.64,-8.99,-30.98,0.0,-10.51,-33.15,-11.27
160,0.027999999,6.8,-1.25,-1.84,-8.6,-32.46,0.0,-10.6,-33.67,-11.56
161,0.028999997,6.99,-1.23,-2.05,-8.55,-33.91,0.0,-10.75,-34.21,-11.85
162,0.028999997,6.89,-1.37,-1.97,-9.27,-33.15,0.0,-10.85,-34.5,-11.96
163,0.028999997,7.04,-1.44,-2.02,-9.58,-33.93,0.0,-10.92,-34.87,-12.09
164,0.028999997,7.16,-1.43,-2.02,-9.47,-34.46,0.0,-10.97,-35.24,-12.23
165,0.028999997,7.18,-1.36,-2.08,-9.17,-34.79,0.0,-11.03,-35.76,-12.37
166,0.027999999,7.14,-1.2,-2.13,-8.39,-34.82,0.0,-11.08,-36.34,-12.37
167,0.028999997,7.43,-1.4,-2.21,-9.34,-36.2,0.0,-11.26,-37.0,-12.4
168,0.028999997,7.38,-1.56,-2.31,-10.27,-36.16,0.0,-11.34,-37.58,-12.49
169,0.028999997,7.47,-1.41,-2.25,-9.39,-36.49,0.0,-11.4,-38.22,-12.57
170,0.028999997,7.55,-1.41,-2.51,-9.53,-37.65,0.0,-11.38,-38.86,-12.63
171,0.028999997,7.78,-1.43,-2.7,-9.64,-39.16,0.0,-11.43,-39.58,-12.78
172,0.027999999,7.76,-1.51,-2.7,-10.06,-39.04,0.0,-11.44,-40.08,-12.83
173,0.029999997,7.75,-1.43,-2.72,-9.69,-39.13,0.0,-11.5,-40.69,-12.94
174,0.028999997,7.94,-1.47,-2.97,-9.94,-40.72,0.0,-11.57,-41.18,-13.02
175,0.027999999,8.06,-1.4,-2.84,-9.4,-40.8,0.0,-11.57,-41.69,-13.16
176,0.028999997,8.13,-1.52,-3.03,-10.12,-41.65,0.0,-11.63,-42.24,-13.29
177,0.029999997,8.23,-1.56,-2.9,-10.18,-41.56,0.0,-11.69,-42.83,-13.46
178,0.027999999,8.21,-1.48,-3.31,-10.07,-42.97,0.0,-11.82,-43.4,-13.53
179,0.029999997,8.23,-1.48,-3.24,-10.0,-42.79,0.0,-11.91,-44.06,-13.56
180,0.028999997,8.33,-1.65,-3.26,-10.85,-43.14,0.0,-12.02,-44.58,-13.62
181,0.029999997,8.36,-1.51,-3.42,-10.18,-43.95,0.0,-12.01,-45.06,-13.67
182,0.027999999,8.33,-1.58,-3.25,-10.44,-43.15,0.0,-12.11,-45.47,-13.8
183,0.028999997,8.45,-1.59,-3.63,-10.68,-44.99,0.0,-12.16,-45.95,-13.84
184,0.029999997,8.51,-1.52,-3.51,-10.17,-44.84,0.0,-12.13,-46.3,-13.87
185,0.027999999,8.63,-1.61,-3.61,-10.64,-45.57,0.0,-12.13,-46.82,-13.93
186,0.029999997,8.66,-1.62,-3.82,-10.82,-46.44,0.0,-12.29,-47.47,-14.04
187,0.028999997,8.72,-1.48,-3.9,-10.1,-47.11,0.0,-12.39,-48.07,-14.11
188,0.028999997,8.89,-1.59,-3.9,-10.56,-47.6,0.0,-12.48,-48.58,-14.11
189,0.028999997,8.94,-1.69,-3.96,-11.08,-47.93,0.0,-12.55,-49.03,-14.05
190,0.029999997,8.92,-1.68,-4.07,-11.09,-48.27,0.0,-12.74,-49.55,-14.1
191,0.027999999,9.0,-1.56,-4.15,-10.47,-49.03,0.0,-12.74,-50.0,-14.14
192,0.028999997,8.98,-1.63,-4.2,-10.86,-49.04,0.0,-12.72,-50.38,-14.22
193,0.029999997,8.99,-1.65,-4.22,-10.99,-49.13,0.0,-12.75,-50.68,-14.26
194,0.027999999,9.23,-1.67,-4.28,-10.93,-50.2,0.0,-12.8,-51.02,-14.28
195,0.029999997,9.03,-1.6,-4.3,-10.78,-49.66,0.0,-12.72,-51.25,-14.24
196,0.028999997,9.09,-1.75,-4.39,-11.57,-50.05,0.0,-12.84,-51.66,-14.33
197,0.028999997,9.06,-1.63,-4.58,-11.09,-50.86,0.0,-12.98,-52.15,-14.4
198,0.028999997,9.17,-1.69,-4.63,-11.33,-51.37,0.0,-13.17,-52.75,-14.53
199,0.028999997,9.45,-1.74,-4.79,-11.47,-52.87,0.0,-13.26,-53.34,-14.6
200,0.028999997,9.26,-1.76,-4.72,-11.69,-51.9,0.0,-13.32,-53.7,-14.6
201,0.028999997,9.31,-1.78,-4.83,-11.84,-52.52,0.0,-13.45,-54.05,-14.63
202,0.029999997,9.44,-1.78,-4.91,-11.74,-53.26,0.0,-13.47,-54.36,-14.62
203,0.028999997,9.47,-1.76,-5.1,-11.76,-54.18,0.0,-13.6,-54.82,-14.67
204,0.028999997,9.53,-1.77,-5.21,-11.79,-54.8,0.0,-13.66,-55.25,-14.61
205,0.028999997,9.59,-1.69,-5.12,-11.3,-54.72,0.0,-13.69,-55.68,-14.57
206,0.029999997,9.57,-1.82,-5.28,-12.08,-55.13,0.0,-13.76,-56.08,-14.48
207,0.027999999,9.48,-1.91,-5.25,-12.61,-54.59,0.0,-13.94,-56.45,-14.39
208,0.028999997,9.64,-1.87,-5.38,-12.34,-55.71,0.0,-13.98,-56.74,-14.32
209,0.029999997,9.62,-1.98,-5.39,-12.95,-55.48,0.0,-13.99,-56.73,-14.25
210,0.027999999,10.27,-0.95,-7.24,-7.54,-67.54,0.0,-14.1,-59.22,-13.33
211,0.029999997,9.79,-1.99,-5.87,-13.13,-57.97,0.0,-14.44,-60.29,-12.97
212,0.028999997,10.15,-2.12,-6.36,-13.73,-60.73,0.0,-14.54,-60.53,-13.0
213,0.028999997,10.16,-2.16,-6.06,-13.74,-59.45,0.0,-14.33,-60.0,-13.16
214,0.029999997,10.05,-2.18,-6.06,-13.96,-59.14,0.0,-14.09,-59.46,-13.55
215,0.028999997,9.91,-1.91,-5.94,-12.6,-58.78,0.0,-13.73,-59.03,-13.76
216,0.028999997,9.7,-1.94,-5.8,-12.89,-57.53,0.0,-13.56,-58.75,-13.82
217,0.028999997,9.76,-1.86,-5.82,-12.43,-57.97,0.0,-13.37,-58.41,-13.77
218,0.029999997,9.86,-2.08,-5.65,-13.38,-57.11,0.0,-13.33,-58.26,-13.7
219,0.027999999,9.76,-1.9,-5.67,-12.56,-57.2,0.0,-13.21,-58.15,-13.6
220,0.028999997,9.8,-1.93,-5.67,-12.7,-57.26,0.0,-13.15,-58.1,-13.53
221,0.029999997,9.85,-1.99,-5.67,-12.92,-57.33,0.0,-13.13,-57.96,-13.52
222,0.027999999,9.84,-1.99,-5.74,-13.02,-57.58,0.0,-13.23,-58.02,-13.58
223,0.029999997,9.91,-2.06,-5.73,-13.31,-57.6,0.0,-13.29,-58.0,-13.64
224,0.028999997,9.87,-1.9,-5.58,-12.37,-57.16,0.0,-13.26,-57.95,-13.67
225,0.029999997,9.81,-1.89,-5.68,-12.46,-57.45,0.0,-13.18,-57.91,-13.71
226,0.027999999,9.86,-1.96,-5.74,-12.83,-57.68,0.0,-13.21,-57.95,-13.79
227,0.028999997,9.67,-1.86,-5.64,-12.43,-56.89,0.0,-13.17,-57.96,-13.85
228,0.029999997,9.87,-1.95,-5.71,-12.74,-57.64,0.0,-13.11,-57.91,-13.86
229,0.027999999,9.82,-1.92,-5.73,-12.62,-57.65,0.0,-13.05,-57.86,-13.97
230,0.029999997,9.81,-1.92,-5.7,-12.63,-57.45,0.0,-13.05,-57.86,-14.1
231,0.028999997,9.84,-1.78,-5.81,-11.91,-58.25,0.0,-12.94,-57.84,-14.14
232,0.028999997,9.78,-1.87,-5.7,-12.41,-57.45,0.0,-12.92,-57.85,-14.14
233,0.028999997,9.8,-1.87,-5.82,-12.47,-58.03,0.0,-12.87,-57.85,-14.1
234,0.029999997,9.79,-1.95,-5.55,-12.72,-56.7,0.0,-12.86,-57.74,-14.11
235,0.027999999,9.79,-1.94,-5.68,-12.74,-57.29,0.0,-12.85,-57.62,-14.17
236,0.028999997,9.76,-1.87,-5.77,-12.45,-57.72,0.0,-12.74,-57.46,-14.17
237,0.029999997,9.68,-1.87,-5.56,-12.41,-56.59,0.0,-12.74,-57.27,-14.19
238,0.027999999,9.85,-1.92,-5.66,-12.55,-57.43,0.0,-12.79,-57.22,-14.24
239,0.029999997,9.75,-1.87,-5.6,-12.38,-56.94,0.0,-12.69,-57.07,-14.14
240,0.028999997,9.77,-1.82,-5.67,-12.14,-57.41,0.0,-12.66,-56.99,-14.09
241,0.028999997,9.78,-1.78,-5.71,-11.92,-57.67,0.0,-12.57,-56.84,-14.01
242,0.028999997,9.62,-1.79,-5.45,-11.97,-56.07,0.0,-12.4,-56.48,-13.84
243,0.028999997,10.35,-1.75,-5.52,-11.12,-58.55,0.0,-12.19,-56.21,-13.57
244,0.029999997,9.73,-2.01,-5.19,-12.89,-54.95,0.0,-12.08,-55.58,-13.22
245,0.028999997,9.49,-2.12,-5.2,-13.7,-54.03,0.0,-12.08,-55.12,-13.07
246,0.028999997,9.51,-1.97,-5.32,-12.98,-54.85,0.0,-12.01,-54.77,-12.86
247,0.028999997,9.42,-2.14,-5.06,-13.8,-53.22,0.0,-11.77,-54.2,-12.51
248,0.028999997,9.4,-2.18,-4.95,-13.94,-52.64,0.0,-11.64,-53.62,-12.34
249,0.028999997,9.34,-2.02,-4.87,-13.11,-52.41,0.0,-11.34,-53.05,-12.13
250,0.029999997,9.51,-2.15,-4.88,-13.64,-52.77,0.0,-11.19,-52.56,-11.91
251,0.027999999,9.36,-2.1,-4.66,-13.34,-51.5,0.0,-11.06,-52.1,-11.64
252,0.029999997,9.23,-2.04,-4.84,-13.31,-51.85,0.0,-10.8,-51.47,-11.37
253,0.028999997,9.09,-2.14,-4.5,-13.71,-49.93,0.0,-10.59,-50.77,-11.12
254,0.028999997,9.02,-2.04,-4.36,-13.13,-49.28,0.0,-10.4,-50.05,-10.95
255,0.028999997,9.03,-2.04,-4.39,-13.13,-49.44,0.0,-10.19,-49.26,-10.89
256,0.028999997,8.91,-1.99,-4.45,-13.06,-49.32,0.0,-10.21,-48.72,-11.09
257,0.028999997,8.83,-2.02,-4.18,-13.05,-47.93,0.0,-10.02,-48.02,-10.88
258,0.028999997,8.8,-2.22,-3.76,-13.77,-46.02,0.0,-9.8,-47.51,-10.57
259,0.028999997,8.65,-2.18,-3.86,-13.79,-45.89,0.0,-9.56,-47.04,-9.88
260,0.027999999,9.76,-1.65,-3.32,-9.9,-48.4,0.0,-9.23,-46.74,-9.26
261,0.028999997,8.8,-1.91,-4.11,-12.46,-47.71,0.0,-8.79,-46.16,-9.13
262,0.027999999,8.5,-2.15,-3.77,-13.72,-45.03,0.0,-8.65,-45.9,-8.77
263,0.027999999,8.08,-1.62,-3.37,-10.94,-42.53,0.0,-8.35,-45.31,-8.48
264,0.028999997,8.34,-2.0,-3.19,-12.59,-42.59,0.0,-8.11,-44.42,-8.33
265,0.027999999,8.42,-1.99,-3.46,-12.69,-43.82,0.0,-8.11,-44.05,-8.19
266,0.027,8.5,-1.95,-3.55,-12.47,-44.48,0.0,-8.18,-43.84,-8.15
267,0.028999997,8.39,-1.86,-3.63,-12.16,-44.45,0.0,-8.37,-43.8,-8.18
268,0.027999999,8.43,-2.0,-3.49,-12.75,-43.94,0.0,-8.44,-43.6,-8.07
269,0.027999999,8.2,-2.06,-3.49,-13.29,-42.99,0.0,-8.58,-43.44,-8.02
270,0.027999999,8.23,-2.04,-3.31,-12.97,-42.52,0.0,-8.74,-43.27,-7.96
271,0.028999997,8.39,-2.07,-3.48,-13.14,-43.7,0.0,-9.01,-43.35,-7.61
272,0.027,8.24,-2.04,-3.41,-13.06,-42.88,0.0,-9.22,-43.17,-7.55
273,0.027999999,8.46,-2.11,-3.47,-13.26,-43.9,0.0,-9.31,-42.87,-7.69
274,0.028999997,8.46,-2.11,-3.39,-13.23,-43.57,0.0,-9.31,-42.44,-7.99
275,0.027,8.18,-2.09,-3.16,-13.13,-41.74,0.0,-9.44,-42.02,-8.37
276,0.028999997,8.27,-1.99,-3.23,-12.61,-42.43,0.0,-9.5,-41.71,-8.66
277,0.027999999,8.05,-1.94,-3.09,-12.43,-41.15,0.0,-9.51,-41.39,-8.72
278,0.027999999,8.26,-1.9,-3.3,-12.23,-42.72,0.0,-9.52,-41.2,-8.71
279,0.027999999,8.01,-1.72,-3.4,-11.53,-42.26,0.0,-9.39,-40.85,-8.83
280,0.027999999,7.96,-1.84,-3.11,-11.99,-40.98,0.0,-9.42,-40.52,-8.9
281,0.027999999,8.01,-1.86,-3.11,-12.06,-41.15,0.0,-9.4,-40.12,-8.92
282,0.027999999,7.97,-1.85,-2.97,-11.89,-40.55,0.0,-9.35,-39.6,-9.02
283,0.028999997,7.93,-1.87,-3.0,-12.05,-40.43,0.0,-9.24,-38.92,-9.17
284,0.027,7.87,-1.76,-2.72,-11.33,-39.36,0.0,-9.0,-37.99,-9.34
285,0.027999999,7.61,-1.63,-2.64,-10.73,-38.15,0.0,-8.73,-37.08,-9.43
286,0.028999997,7.7,-1.67,-2.59,-10.86,-38.33,0.0,-8.49,-36.21,-9.44
287,0.027,7.42,-1.57,-2.26,-10.26,-36.21,0.0,-8.45,-35.38,-9.66
288,0.028999997,7.29,-1.5,-2.33,-10.03,-35.9,0.0,-8.54,-34.71,-9.79
289,0.027999999,7.32,-1.55,-2.19,-10.15,-35.61,0.0,-8.65,-34.15,-10.13
290,0.027999999,7.14,-1.57,-2.22,-10.36,-34.9,0.0,-8.72,-33.55,-10.34
291,0.028999997,7.22,-1.58,-2.17,-10.35,-35.06,0.0,-8.78,-32.76,-10.76
292,0.028999997,6.78,-1.25,-2.02,-8.73,-32.86,0.0,-8.9,-31.71,-11.45
293,0.027999999,6.26,-1.48,-1.95,-10.14,-30.16,0.0,-9.04,-30.71,-11.33
294,0.028999997,6.86,-1.51,-1.79,-9.88,-32.44,0.0,-8.9,-30.18,-11.44
295,0.027999999,6.73,-1.41,-1.81,-9.45,-32.0,0.0,-8.83,-29.71,-11.78
296,0.027999999,6.69,-1.31,-1.91,-8.99,-32.16,0.0,-8.77,-29.32,-12.1
297,0.028999997,6.5,-1.43,-1.64,-9.51,-30.53,0.0,-8.68,-28.71,-12.41
298,0.027999999,6.4,-1.11,-1.61,-7.89,-30.11,0.0,-8.62,-28.36,-12.52
299,0.027999999,6.28,-1.22,-1.57,-8.48,-29.38,0.0,-8.63,-27.8,-12.74
300,0.028999997,6.28,-1.28,-1.37,-8.65,-28.89,0.0,-8.48,-27.42,-12.73
301,0.027999999,6.27,-1.18,-1.4,-8.13,-28.95,0.0,-8.38,-27.38,-12.68
302,0.027999999,6.33,-1.06,-1.56,-7.6,-29.65,0.0,-8.3,-27.14,-12.77
303,0.028999997,6.1,-1.16,-1.45,-8.14,-28.28,0.0,-8.37,-26.93,-12.77
304,0.027,6.08,-1.19,-1.35,-8.25,-27.95,0.0,-8.37,-26.67,-12.91
305,0.028999997,6.05,-1.22,-1.2,-8.31,-27.41,0.0,-8.34,-26.39,-13.17
306,0.028999997,6.03,-1.09,-1.2,-7.66,-27.4,0.0,-8.21,-26.04,-13.33
307,0.027,5.93,-1.29,-1.07,-8.62,-26.54,0.0,-8.08,-25.42,-13.37
308,0.028999997,6.0,-1.06,-1.17,-7.49,-27.18,0.0,-7.86,-24.65,-13.28
309,0.028999997,5.72,-1.06,-0.94,-7.43,-25.38,0.0,-7.53,-23.72,-13.25
310,0.027,5.41,-1.02,-1.02,-7.37,-24.08,0.0,-7.27,-22.67,-13.37
311,0.028999997,5.32,-1.03,-0.82,-7.3,-23.22,0.0,-6.97,-21.68,-13.5
312,0.028999997,5.21,-1.01,-0.77,-7.2,-22.62,0.0,-6.79,-20.8,-13.69
313,0.027,5.1,-0.88,-0.7,-6.54,-21.99,0.0,-6.51,-19.85,-13.91
314,0.028999997,4.87,-0.81,-0.62,-6.19,-20.72,0.0,-6.24,-18.87,-14.03
315,0.028999997,4.82,-0.79,-0.63,-6.09,-20.5,0.0,-6.09,-17.85,-14.21
316,0.027,4.55,-0.8,-0.35,-6.02,-18.71,0.0,-5.99,-16.88,-14.45
317,0.028999997,4.4,-0.72,-0.5,-5.71,-18.22,0.0,-5.95,-16.13,-14.44
318,0.028999997,4.34,-0.7,-0.36,-5.58,-17.69,0.0,-5.87,-15.41,-14.54
319,0.027,4.04,-0.61,-0.49,-5.21,-16.39,0.0,-5.83,-14.85,-14.52
320,0.028999997,4.0,-0.68,-0.41,-5.54,-16.06,0.0,-5.86,-14.38,-14.5
321,0.028999997,3.97,-0.68,-0.4,-5.55,-15.91,0.0,-5.87,-13.94,-14.72
322,0.027,3.93,-0.69,-0.35,-5.55,-15.65,0.0,-5.86,-13.41,-14.87
323,0.028999997,3.79,-0.61,-0.25,-5.11,-14.82,0.0,-5.78,-12.72,-14.89
324,0.028999997,3.41,-0.71,-0.2,-5.68,-12.8,0.0,-5.76,-11.71,-14.93
325,0.027999999,3.46,-0.73,-0.02,-5.67,-12.85,0.0,-5.66,-11.21,-14.98
326,0.027999999,3.43,-0.55,-0.28,-4.85,-13.02,0.0,-5.56,-10.85,-15.14
327,0.028999997,3.3,-0.6,-0.23,-5.12,-12.32,0.0,-5.49,-10.43,-15.1
328,0.027999999,3.25,-0.61,-0.13,-5.14,-11.92,0.0,-5.38,-10.03,-15.13
329,0.027999999,3.19,-0.52,-0.15,-4.69,-11.68,0.0,-5.29,-9.68,-15.15
330,0.028999997,3.13,-0.55,-0.11,-4.82,-11.33,0.0,-5.13,-9.11,-15.21
331,0.027,2.93,-0.58,-0.05,-4.98,-10.2,0.0,-5.03,-8.46,-15.36
332,0.027999999,2.91,-0.36,-0.02,-3.82,-10.1,0.0,-4.87,-7.72,-15.4
333,0.028999997,2.66,-0.52,-0.03,-4.67,-8.81,0.0,-4.72,-6.84,-15.44
334,0.027,2.48,-0.45,-0.1,-4.34,-7.94,0.0,-4.54,-6.13,-15.44
335,0.027999999,2.49,-0.48,0.0,-4.44,-7.93,0.0,-4.34,-5.57,-15.51
336,0.027999999,2.2,-0.38,0.05,-3.93,-6.39,0.0,-4.12,-4.83,-15.5
337,0.027,2.14,-0.32,0.15,-3.58,-6.03,0.0,-3.88,-3.89,-15.59
338,0.027999999,1.92,-0.35,0.14,-3.77,-4.93,0.0,-3.65,-3.06,-15.62
339,0.027999999,1.82,-0.33,-0.01,-3.7,-4.47,0.0,-3.37,-2.28,-15.61
340,0.027,1.65,-0.24,-0.02,-3.22,-3.56,0.0,-3.1,-1.42,-15.61
341,0.027999999,1.5,-0.24,0.14,-3.2,-2.75,0.0,-2.82,-0.67,-15.71
342,0.027,1.27,-0.01,0.0,-2.02,-1.56,0.0,-2.51,0.01,-15.88
343,0.027,1.17,-0.12,-0.03,-2.6,-1.04,0.0,-2.29,0.75,-15.96
344,0.027,1.2,-0.05,0.14,-2.18,-1.18,0.0,-2.04,1.44,-16.01
345,0.027,0.96,-0.01,0.25,-1.99,0.09,0.0,-1.76,2.17,-16.07
346,0.027,0.73,0.08,0.08,-1.55,1.25,0.0,-1.44,2.99,-16.22
347,0.027,0.71,0.07,0.08,-1.58,1.4,0.0,-1.23,3.69,-16.35
348,0.025,0.66,0.16,0.11,-1.11,1.64,0.0,-1.1,4.08,-16.35
349,0.027,0.52,0.24,0.1,-0.69,2.36,0.0,-0.95,4.41,-16.32
350,0.027,0.49,0.13,0.2,-1.25,2.48,0.0,-0.86,4.78,-16.32
351,0.025,0.37,0.29,-0.02,-0.43,3.17,0.0,-0.77,5.07,-16.33
352,0.027,0.3,0.21,0.11,-0.85,3.54,0.0,-0.84,5.4,-16.19
353,0.025999999,0.19,0.13,0.01,-1.28,4.11,0.0,-0.89,5.68,-16.12
354,0.025999999,0.1,0.14,0.14,-1.23,4.57,0.0,-1.06,5.9,-16.18
355,0.027,0.18,0.2,-0.16,-0.91,4.24,0.0,-1.37,6.08,-16.27
356,0.025,-0.01,0.23,-0.04,-0.74,5.2,0.0,-1.68,6.2,-16.2
357,0.027999999,-0.01,0.1,-0.06,-1.43,5.19,0.0,-1.99,6.27,-16.13
358,0.027,-0.15,0.1,-0.0,-1.43,5.93,0.0,-2.32,6.35,-16.06
359,0.025999999,-0.06,-0.05,0.24,-2.19,5.3,0.0,-2.61,6.38,-16.07
360,0.027,0.1,-0.3,0.11,-3.49,4.55,0.0,-3.02,6.41,-16.09
361,0.025999999,-0.02,-0.12,-0.01,-2.6,5.23,0.0,-3.12,6.62,-16.21
362,0.027,-0.11,-0.27,0.09,-3.32,5.62,0.0,-3.12,7.06,-16.35
363,0.027999999,-0.08,-0.2,0.16,-2.98,5.47,0.0,-3.0,7.59,-16.47
364,0.025999999,-0.13,-0.15,0.13,-2.73,5.74,0.0,-2.87,7.98,-16.54
365,0.027,-0.35,-0.14,0.02,-2.66,6.95,0.0,-2.83,8.46,-16.55
366,0.027,-0.41,-0.13,-0.05,-2.65,7.27,0.0,-2.73,8.99,-16.47
367,0.025999999,-0.46,-0.26,0.03,-3.32,7.5,0.0,-2.58,9.48,-16.5
368,0.027999999,-0.52,-0.18,-0.06,-2.93,7.89,0.0,-2.51,9.92,-16.61
369,0.025999999,-0.75,-0.16,-0.12,-2.78,9.13,0.0,-2.53,10.26,-16.73
370,0.027999999,-0.7,-0.12,-0.28,-2.62,8.98,0.0,-2.66,10.49,-16.86
371,0.027,-0.7,-0.16,-0.13,-2.8,8.85,0.0,-2.87,10.75,-16.95
372,0.027,-0.86,-0.24,-0.22,-3.26,9.79,0.0,-3.07,11.09,-17.04
373,0.027999999,-0.94,-0.46,-0.06,-4.37,10.04,0.0,-3.3,11.43,-17.12
374,0.027,-1.1,-0.14,-0.42,-2.78,11.22,0.0,-3.35,11.89,-17.19
375,0.027,-1.12,-0.12,-0.33,-2.64,11.23,0.0,-3.47,12.5,-17.26
376,0.027999999,-1.25,-0.21,-0.42,-3.13,12.04,0.0,-3.6,13.04,-17.47
377,0.027999999,-1.22,-0.47,-0.23,-4.43,11.61,0.0,-3.91,13.46,-17.67
378,0.027,-1.36,-0.49,-0.18,-4.52,12.28,0.0,-4.13,13.73,-17.73
379,0.027999999,-1.53,-0.47,-0.21,-4.39,13.22,0.0,-4.33,14.12,-17.74
380,0.027999999,-1.41,-0.52,-0.3,-4.71,12.67,0.0,-4.47,14.41,-17.89
381,0.027,-1.58,-0.45,-0.34,-4.35,13.6,0.0,-4.55,14.83,-17.87
382,0.027999999,-1.7,-0.52,-0.4,-4.73,14.31,0.0,-4.66,15.36,-17.86
383,0.027,-1.74,-0.47,-0.29,-4.4,14.39,0.0,-4.69,15.89,-17.89
384,0.028999997,-1.85,-0.38,-0.38,-3.96,15.05,0.0,-4.78,16.42,-17.84
385,0.027999999,-1.78,-0.6,-0.36,-5.1,14.62,0.0,-4.86,16.84,-17.96
386,0.027,-2.05,-0.64,-0.39,-5.3,16.05,0.0,-4.92,17.13,-18.04
387,0.027999999,-2.02,-0.61,-0.6,-5.24,16.2,0.0,-5.01,17.43,-18.09
388,0.027999999,-2.01,-0.51,-0.56,-4.69,16.12,0.0,-5.06,17.79,-17.97
389,0.027,-2.24,-0.65,-0.55,-5.4,17.22,0.0,-5.14,18.16,-17.95
390,0.028999997,-2.23,-0.58,-0.72,-5.11,17.49,0.0,-5.16,18.64,-18.03
391,0.027999999,-2.3,-0.35,-0.81,-3.9,18.01,0.0,-5.09,19.24,-18.1
392,0.027,-2.34,-0.6,-0.67,-5.17,17.95,0.0,-5.18,19.77,-18.08
393,0.027999999,-2.5,-0.69,-0.82,-5.7,19.01,0.0,-5.21,20.34,-18.18
394,0.027999999,-2.59,-0.74,-0.77,-5.95,19.37,0.0,-5.15,20.99,-18.34
395,0.027,-2.69,-1.02,-0.67,-7.32,19.62,0.0,-5.1,21.54,-18.69
396,0.028999997,-2.78,-0.69,-0.89,-5.71,20.52,0.0,-5.21,22.24,-18.71
397,0.027999999,-2.93,-0.67,-0.76,-5.5,21.06,0.0,-5.31,22.99,-18.83
398,0.027,-3.01,-0.71,-0.81,-5.73,21.52,0.0,-5.44,23.51,-18.93
399,0.027999999,-3.19,-0.75,-1.02,-5.98,22.83,0.0,-5.62,24.07,-18.94
400,0.027999999,-3.32,-0.72,-1.01,-5.8,23.43,0.0,-5.7,24.6,-19.0
401,0.027999999,-3.39,-0.63,-1.16,-5.4,24.11,0.0,-5.7,25.09,-19.01
402,0.027999999,-3.41,-0.76,-1.26,-6.11,24.42,0.0,-5.74,25.56,-19.04
403,0.027999999,-3.5,-0.71,-1.24,-5.81,24.81,0.0,-5.86,25.99,-19.09
404,0.027,-3.61,-0.72,-1.47,-5.97,25.89,0.0,-5.97,26.53,-19.1
405,0.027999999,-3.79,-0.99,-1.19,-7.19,26.02,0.0,-5.98,26.96,-19.31
406,0.027,-3.7,-0.9,-1.2,-6.78,25.67,0.0,-6.12,27.34,-19.32
407,0.028999997,-3.72,-0.8,-1.48,-6.36,26.41,0.0,-6.04,27.76,-19.45
408,0.027999999,-3.76,-0.87,-1.46,-6.76,26.56,0.0,-6.13,28.08,-19.52
409,0.027,-3.84,-0.85,-1.41,-6.6,26.85,0.0,-6.09,28.4,-19.61
410,0.027999999,-3.91,-0.74,-1.58,-6.05,27.6,0.0,-6.03,28.81,-19.82
411,0.027999999,-4.0,-0.87,-1.5,-6.7,27.82,0.0,-6.13,29.04,-19.89
412,0.027,-4.01,-0.86,-1.69,-6.72,28.32,0.0,-6.25,29.4,-20.0
413,0.028999997,-4.1,-1.14,-1.57,-8.13,28.37,0.0,-6.47,29.7,-20.22
414,0.027999999,-4.05,-0.8,-1.84,-6.46,28.92,0.0,-6.47,30.04,-20.37
415,0.027,-4.06,-1.04,-1.62,-7.66,28.31,0.0,-6.57,30.36,-20.48
416,0.027999999,-4.17,-1.21,-1.51,-8.46,28.49,0.0,-6.7,30.69,-20.52
417,0.027999999,-4.4,-0.84,-1.84,-6.57,30.59,0.0,-6.6,31.09,-20.62
418,0.027,-4.31,-0.91,-1.83,-7.0,30.11,0.0,-6.65,31.31,-20.59
419,0.028999997,-4.36,-1.03,-1.81,-7.6,30.26,0.0,-6.91,31.61,-20.57
420,0.027999999,-4.49,-0.92,-2.09,-7.12,31.67,0.0,-7.13,32.01,-20.58
421,0.027,-4.51,-1.07,-1.93,-7.86,31.24,0.0,-7.25,32.29,-20.65
422,0.027999999,-4.57,-1.04,-2.08,-7.75,31.93,0.0,-7.29,32.62,-20.71
423,0.027999999,-4.54,-1.18,-2.02,-8.49,31.57,0.0,-7.3,33.0,-20.77
424,0.027,-4.59,-1.1,-2.06,-8.06,31.97,0.0,-7.27,33.31,-20.83
425,0.028999997,-4.71,-1.05,-2.4,-7.94,33.53,0.0,-7.32,33.76,-20.84
426,0.027999999,-4.74,-1.08,-2.11,-7.92,32.83,0.0,-7.49,34.16,-20.83
427,0.027,-4.84,-1.23,-2.22,-8.75,33.52,0.0,-7.66,34.52,-20.86
428,0.027999999,-4.88,-1.16,-2.34,-8.43,34.09,0.0,-7.74,34.89,-20.86
429,0.027,-4.86,-1.12,-2.28,-8.19,33.82,0.0,-7.81,35.22,-20.78
430,0.027999999,-4.85,-1.09,-2.3,-8.04,33.89,0.0,-7.79,35.49,-20.78
431,0.028999997,-5.01,-1.18,-2.37,-8.5,34.76,0.0,-7.86,35.85,-20.77
432,0.027,-5.05,-1.22,-2.32,-8.68,34.77,0.0,-7.92,36.12,-20.74
433,0.027999999,-5.04,-1.1,-2.43,-8.09,35.13,0.0,-7.84,36.3,-20.71
434,0.027999999,-5.1,-1.1,-2.6,-8.19,35.92,0.0,-7.53,36.49,-20.65
435,0.027,-5.12,-1.08,-2.48,-7.97,35.64,0.0,-7.06,36.65,-20.63
436,0.027999999,-5.18,-0.96,-2.51,-7.34,36.04,0.0,-6.72,36.88,-20.64
437,0.028999997,-5.16,-1.01,-2.55,-7.64,36.09,0.0,-6.89,37.1,-20.59
438,0.027,-5.1,-0.92,-2.62,-7.18,36.08,0.0,-7.15,37.3,-20.52
439,0.027999999,-5.17,-0.88,-2.75,-7.03,36.81,0.0,-7.51,37.52,-20.43
440,0.027999999,-5.37,-1.1,-2.65,-8.08,37.31,0.0,-7.78,37.66,-20.39
441,0.027,-5.31,-1.07,-2.7,-7.95,37.2,0.0,-7.84,37.81,-20.42
442,0.027999999,-5.34,-1.07,-2.75,-7.99,37.5,0.0,-7.99,37.91,-20.43
443,0.028999997,-5.36,-1.09,-2.78,-8.11,37.7,0.0,-8.02,37.99,-20.53
444,0.027,-5.31,-1.09,-2.65,-8.05,37.04,0.0,-7.92,38.14,-20.58
445,0.027999999,-5.45,-1.02,-2.79,-7.72,38.15,0.0,-8.24,38.32,-20.52
446,0.027999999,-5.41,-1.17,-2.61,-8.44,37.28,0.0,-8.2,38.51,-20.54
447,0.027,-5.37,-1.14,-2.58,-8.25,37.03,0.0,-8.32,38.75,-20.43
448,0.027999999,-5.47,-1.11,-2.9,-8.23,38.54,0.0,-8.43,39.09,-20.37
449,0.028999997,-5.47,-1.08,-2.87,-8.09,38.47,0.0,-8.57,39.26,-20.28
450,0.027,-5.54,-1.16,-2.93,-8.51,38.89,0.0,-8.52,39.51,-20.22
451,0.027999999,-5.56,-1.12,-2.97,-8.28,39.19,0.0,-8.56,39.77,-20.19
452,0.027,-5.61,-1.14,-3.12,-8.46,39.91,0.0,-8.59,40.05,-20.17
453,0.027999999,-5.56,-1.07,-3.12,-8.1,39.72,0.0,-8.43,40.3,-20.17
454,0.027999999,-5.61,-1.16,-3.12,-8.6,39.88,0.0,-8.36,40.53,-20.22
455,0.027999999,-5.73,-1.08,-3.19,-8.15,40.67,0.0,-8.34,40.77,-20.25
456,0.027999999,-5.73,-1.13,-3.16,-8.36,40.55,0.0,-8.36,41.07,-20.3
457,0.027999999,-5.79,-1.13,-3.23,-8.4,41.05,0.0,-8.13,41.45,-20.39
458,0.027,-5.77,-1.06,-3.14,-7.94,40.69,0.0,-7.9,41.79,-20.49
459,0.027999999,-5.8,-1.13,-3.33,-8.45,41.44,0.0,-7.66,42.19,-20.66
460,0.027999999,-5.97,-1.13,-3.38,-8.41,42.34,0.0,-7.34,42.7,-20.78
461,0.027999999,-5.92,-0.96,-3.43,-7.48,42.47,0.0,-6.89,43.25,-20.95
462,0.027999999,-5.98,-1.0,-3.28,-7.6,42.11,0.0,-6.58,43.61,-21.07
463,0.027999999,-5.99,-1.0,-3.38,-7.63,42.54,0.0,-6.21,44.06,-21.23
464,0.027,-6.14,-0.94,-3.54,-7.34,43.77,0.0,-6.06,44.41,-21.33
465,0.027999999,-6.07,-0.98,-3.56,-7.61,43.53,0.0,-5.97,44.74,-21.5
466,0.027999999,-6.14,-1.07,-3.77,-8.15,44.57,0.0,-5.9,45.07,-21.69
467,0.027999999,-6.19,-0.93,-3.62,-7.29,44.27,0.0,-5.94,45.42,-21.81
468,0.027999999,-6.31,-0.89,-3.79,-7.1,45.42,0.0,-5.95,45.79,-21.84
469,0.027999999,-6.26,-0.97,-3.82,-7.61,45.27,0.0,-6.06,46.04,-22.09
470,0.027,-6.24,-0.94,-3.75,-7.39,44.97,0.0,-6.36,46.25,-22.23
471,0.027999999,-6.32,-0.95,-4.18,-7.63,46.99,0.0,-6.54,46.55,-22.26
472,0.027,-6.38,-1.13,-4.0,-8.49,46.35,0.0,-6.6,46.98,-22.33
473,0.028999997,-6.38,-1.09,-4.0,-8.29,46.4,0.0,-6.72,47.3,-22.37
474,0.027999999,-6.43,-1.09,-4.16,-8.32,47.21,0.0,-6.59,47.87,-22.46
475,0.027,-6.54,-1.09,-4.17,-8.27,47.7,0.0,-6.62,48.39,-22.48
476,0.027999999,-6.56,-1.15,-4.43,-8.74,48.77,0.0,-6.41,48.93,-22.51
477,0.027999999,-6.63,-0.99,-4.33,-7.76,48.78,0.0,-6.1,49.35,-22.58
478,0.027,-6.6,-1.04,-4.3,-8.04,48.52,0.0,-5.9,49.83,-22.63
479,0.028999997,-6.67,-1.02,-4.6,-8.01,50.03,0.0,-5.67,50.34,-22.75
480,0.027999999,-6.7,-1.01,-4.33,-7.81,49.04,0.0,-5.66,50.6,-22.83
481,0.027,-6.66,-1.01,-4.36,-7.85,48.98,0.0,-5.73,50.83,-22.85
482,0.027999999,-6.86,-1.03,-4.69,-8.02,51.11,0.0,-5.9,51.11,-22.9
483,0.027999999,-6.79,-1.15,-4.37,-8.54,49.41,0.0,-6.09,51.33,-23.05
484,0.027,-6.83,-1.03,-4.42,-7.91,49.85,0.0,-6.2,51.56,-23.13
485,0.028999997,-6.88,-1.0,-4.66,-7.84,51.08,0.0,-6.27,51.88,-23.22
486,0.027999999,-6.9,-1.11,-4.67,-8.4,51.07,0.0,-6.25,52.22,-23.34
487,0.027,-7.0,-1.05,-4.84,-8.13,52.24,0.0,-6.11,52.71,-23.47
488,0.027999999,-7.05,-1.1,-5.07,-8.45,53.35,0.0,-6.05,53.17,-23.56
489,0.027999999,-7.02,-1.14,-4.56,-8.47,51.03,0.0,-5.99,53.51,-23.62
490,0.027,-7.15,-1.05,-5.04,-8.1,53.66,0.0,-5.88,53.89,-23.68
491,0.028999997,-7.13,-0.97,-4.67,-7.49,52.04,0.0,-5.6,54.42,-23.86
492,0.027999999,-7.15,-0.99,-5.17,-7.81,54.28,0.0,-5.57,54.79,-24.0
493,0.027,-7.27,-1.02,-5.3,-7.99,55.25,0.0,-5.42,55.2,-24.16
494,0.027999999,-7.21,-1.04,-5.16,-8.06,54.37,0.0,-5.26,55.62,-24.27
495,0.027,-7.26,-1.05,-5.01,-8.03,53.84,0.0,-5.68,55.93,-24.29
496,0.027999999,-7.24,-1.08,-5.32,-8.36,55.16,0.0,-6.01,56.16,-24.28
497,0.028999997,-7.25,-1.15,-5.3,-8.75,55.0,0.0,-6.42,56.42,-24.17
498,0.027,-7.28,-1.15,-5.47,-8.81,55.89,0.0,-6.63,56.66,-24.13
499,0.027999999,-7.22,-1.0,-5.5,-8.0,56.04,0.0,-6.92,56.81,-24.01
500,0.027999999,-7.36,-1.09,-5.57,-8.41,56.65,0.0,-7.17,57.15,-23.85
501,0.027,-7.3,-1.22,-5.64,-9.23,56.63,0.0,-7.27,57.61,-23.83
502,0.027999999,-7.44,-1.18,-5.77,-8.95,57.75,0.0,-7.44,58.08,-23.87
503,0.028999997,-7.58,-1.09,-6.05,-8.46,59.62,0.0,-7.26,58.94,-23.98
504,0.027,-7.38,-1.07,-5.86,-8.4,58.13,0.0,-6.98,59.58,-24.08
505,0.027999999,-7.47,-1.19,-5.94,-9.1,58.61,0.0,-6.78,60.28,-24.26
506,0.027999999,-7.58,-1.19,-6.43,-9.23,61.25,0.0,-6.36,61.08,-24.44
507,0.027,-7.5,-0.9,-6.06,-7.46,59.64,0.0,-6.09,61.46,-24.52
508,0.027999999,-7.67,-1.09,-6.03,-8.42,59.74,0.0,-6.35,61.76,-24.52
509,0.027999999,-7.71,-1.12,-6.45,-8.69,61.84,0.0,-6.94,61.89,-24.48
510,0.027999999,-7.62,-1.12,-6.42,-8.75,61.47,0.0,-7.69,61.99,-24.26
511,0.027999999,-7.71,-1.05,-6.47,-8.3,62.05,0.0,-8.2,62.46,-24.02
512,0.027999999,-7.77,-1.12,-6.5,-8.71,62.25,0.0,-8.42,62.8,-23.92
513,0.027,-7.79,-1.03,-6.58,-8.2,62.83,0.0,-8.32,63.14,-23.85
514,0.027999999,-7.82,-1.11,-6.63,-8.64,63.02,0.0,-8.17,63.54,-23.87
515,0.027999999,-7.82,-1.09,-6.68,-8.57,63.3,0.0,-8.14,63.81,-23.84
516,0.027999999,-7.87,-1.12,-6.96,-8.76,64.78,0.0,-8.28,64.26,-23.84
517,0.027999999,-7.99,-1.42,-7.11,-10.45,65.16,0.0,-8.57,64.91,-23.84
518,0.027,-7.86,-1.07,-7.06,-8.55,65.34,0.0,-8.7,65.32,-23.8
519,0.027999999,-7.92,-1.08,-7.01,-8.53,65.2,0.0,-8.76,65.81,-23.72
520,0.027999999,-7.81,-1.16,-6.98,-9.08,64.6,0.0,-8.85,66.26,-23.62
521,0.027999999,-7.9,-1.06,-7.38,-8.54,67.07,0.0,-9.16,66.6,-23.6
522,0.027999999,-7.92,-1.14,-7.28,-8.98,66.42,0.0,-9.48,66.94,-23.6
523,0.027999999,-7.93,-1.11,-7.2,-8.75,66.13,0.0,-9.62,67.33,-23.58
524,0.027,-7.98,-1.14,-7.45,-9.0,67.44,0.0,-9.75,67.59,-23.59
525,0.027999999,-7.99,-1.15,-7.29,-8.95,66.65,0.0,-9.9,67.84,-23.62
526,0.028999997,-8.02,-1.18,-7.38,-9.16,67.08,0.0,-10.0,68.05,-23.61
527,0.027,-7.97,-1.13,-7.5,-8.92,67.66,0.0,-10.13,68.23,-23.64
528,0.027999999,-8.12,-1.22,-7.59,-9.38,68.23,0.0,-10.43,68.54,-23.51
529,0.028999997,-7.96,-1.24,-7.79,-9.7,68.83,0.0,-10.72,68.95,-23.4
530,0.027,-8.03,-1.09,-7.75,-8.71,69.14,0.0,-10.73,69.27,-23.31
531,0.028999997,-8.11,-1.11,-7.86,-8.82,69.83,0.0,-10.72,69.61,-23.26
532,0.027999999,-8.03,-1.1,-7.75,-8.78,69.1,0.0,-10.65,69.89,-23.22
533,0.027,-8.03,-1.08,-7.81,-8.71,69.46,0.0,-10.64,70.21,-23.18
534,0.028999997,-8.07,-1.17,-7.9,-9.19,69.8,0.0,-10.99,70.47,-23.15
535,0.027999999,-7.99,-1.09,-8.16,-8.87,71.16,0.0,-11.07,70.82,-23.13
536,0.027999999,-8.03,-1.1,-7.89,-8.84,69.83,0.0,-11.09,71.02,-23.13
537,0.027999999,-8.15,-1.2,-8.15,-9.38,71.1,0.0,-10.96,71.29,-23.07
538,0.028999997,-8.14,-1.16,-8.1,-9.15,70.9,0.0,-10.98,71.55,-23.04
539,0.027,-8.1,-1.11,-8.18,-8.93,71.37,0.0,-10.87,71.78,-23.02
540,0.027999999,-8.22,-1.02,-8.1,-8.24,71.44,0.0,-10.43,71.99,-22.93
541,0.028999997,-8.17,-1.05,-8.14,-8.51,71.48,0.0,-10.1,72.33,-22.83
542,0.027,-8.15,-1.02,-8.28,-8.33,72.23,0.0,-9.99,72.62,-22.79
543,0.027999999,-8.19,-1.03,-8.42,-8.43,72.97,0.0,-9.91,72.94,-22.79
544,0.028999997,-8.15,-1.04,-8.46,-8.5,73.06,0.0,-10.09,73.25,-22.77
545,0.027,-8.14,-1.1,-8.54,-8.88,73.24,0.0,-10.16,73.55,-22.82
546,0.027999999,-8.2,-1.03,-8.67,-8.48,74.2,0.0,-10.08,73.82,-22.82
547,0.028999997,-8.13,-1.04,-8.56,-8.58,73.52,0.0,-10.02,74.09,-22.83
548,0.027,-8.21,-1.07,-8.82,-8.75,74.79,0.0,-9.98,74.33,-22.88
549,0.027999999,-8.23,-1.14,-8.57,-9.07,73.45,0.0,-9.96,74.48,-22.95
550,0.027999999,-8.28,-1.1,-8.86,-8.84,75.0,0.0,-9.99,74.72,-22.99
551,0.027999999,-8.27,-1.11,-8.67,-8.85,74.07,0.0,-9.92,74.9,-23.01
552,0.027999999,-8.29,-1.07,-8.71,-8.6,74.45,0.0,-9.84,75.12,-22.98
553,0.027,-8.29,-1.14,-8.85,-9.05,74.84,0.0,-9.62,75.34,-22.91
554,0.027999999,-8.3,-1.09,-8.78,-8.73,74.72,0.0,-9.57,75.57,-22.89
555,0.027999999,-8.24,-1.06,-8.95,-8.65,75.53,0.0,-9.45,75.94,-22.86
556,0.027999999,-8.27,-1.07,-9.17,-8.71,76.54,0.0,-9.19,76.31,-22.78
557,0.027999999,-8.3,-1.04,-9.14,-8.54,76.52,0.0,-9.01,76.61,-22.75
558,0.027999999,-8.31,-1.0,-9.02,-8.24,76.15,0.0,-9.03,76.99,-22.74
559,0.027,-8.28,-1.12,-9.2,-9.01,76.47,0.0,-9.2,77.36,-22.72
560,0.027999999,-8.25,-1.03,-9.32,-8.55,77.28,0.0,-9.18,77.7,-22.67
561,0.027999999,-8.32,-1.02,-9.29,-8.42,77.29,0.0,-9.21,77.95,-22.62
562,0.027999999,-8.25,-1.07,-9.39,-8.75,77.49,0.0,-9.01,78.21,-22.56
563,0.027999999,-8.33,-1.01,-9.43,-8.34,77.96,0.0,-8.94,78.53,-22.48
564,0.027999999,-8.26,-0.97,-9.48,-8.18,78.26,0.0,-8.95,78.82,-22.46
565,0.027,-8.29,-1.02,-9.6,-8.46,78.57,0.0,-8.87,79.09,-22.43
566,0.027999999,-8.16,-0.96,-9.69,-8.22,79.05,0.0,-8.87,79.38,-22.42
567,0.027999999,-8.15,-1.02,-9.66,-8.59,78.67,0.0,-8.9,79.56,-22.55
568,0.027999999,-8.22,-1.07,-9.55,-8.86,78.06,0.0,-9.02,79.68,-22.66
569,0.027999999,-8.39,-1.13,-9.76,-9.03,78.79,0.0,-9.26,79.87,-22.64
570,0.027999999,-8.39,-1.13,-9.75,-9.05,78.75,0.0,-9.45,80.1,-22.64
571,0.027,-8.41,-1.15,-9.58,-9.12,78.06,0.0,-9.41,80.31,-22.6
572,0.027999999,-8.42,-1.07,-9.74,-8.71,79.0,0.0,-9.36,80.65,-22.48
573,0.027,-8.36,-1.07,-10.26,-8.77,80.51,0.0,-9.15,81.01,-22.38
574,0.028999997,-8.26,-1.01,-10.08,-8.46,80.29,0.0,-9.05,81.38,-22.34
575,0.027999999,-8.23,-1.03,-9.96,-8.61,79.79,0.0,-8.94,81.7,-22.33
576,0.027,-8.2,-0.98,-10.2,-8.35,80.72,0.0,-8.82,81.91,-22.33
577,0.028999997,-8.17,-0.99,-10.08,-8.42,80.31,0.0,-8.85,82.03,-22.37
578,0.027999999,-8.26,-0.94,-10.35,-8.08,81.35,0.0,-8.83,82.16,-22.4
579,0.027999999,-8.32,-1.01,-10.19,-8.41,80.65,0.0,-8.81,82.3,-22.42
580,0.027999999,-8.26,-1.03,-10.17,-8.6,80.43,0.0,-8.96,82.31,-22.51
581,0.028999997,-8.22,-1.1,-10.32,-9.09,80.33,0.0,-9.01,82.27,-22.54
582,0.027,-8.32,-1.08,-10.27,-8.86,80.45,0.0,-9.16,82.23,-22.56
583,0.027999999,-8.33,-1.05,-10.29,-8.65,80.68,0.0,-9.34,82.21,-22.62
584,0.028999997,-8.2,-1.02,-10.33,-8.6,80.8,0.0,-9.44,82.12,-22.64
585,0.027,-8.22,-1.07,-10.28,-8.89,80.44,0.0,-9.44,81.99,-22.66
586,0.028999997,-8.21,-1.07,-10.29,-8.9,80.46,0.0,-9.48,81.87,-22.69
587,0.027999999,-8.26,-1.13,-10.16,-9.23,79.84,0.0,-9.64,81.67,-22.78
588,0.027999999,-8.27,-1.08,-10.32,-8.91,80.51,0.0,-9.8,81.46,-22.85
589,0.027999999,-8.34,-1.17,-10.1,-9.39,79.56,0.0,-10.08,81.11,-22.91
590,0.028999997,-8.4,-1.07,-10.12,-8.76,80.18,0.0,-10.36,80.72,-22.98
591,0.027,-8.33,-1.08,-10.02,-8.87,79.78,0.0,-10.67,80.27,-23.08
592,0.028999997,-8.23,-1.12,-10.0,-9.19,79.41,0.0,-11.02,79.69,-23.17
593,0.028999997,-8.29,-1.05,-9.97,-8.68,79.76,0.0,-11.11,79.08,-23.25
594,0.027,-8.29,-1.17,-9.99,-9.42,79.19,0.0,-11.33,78.4,-23.35
595,0.028999997,-8.21,-1.16,-9.63,-9.4,77.96,0.0,-11.38,77.56,-23.47
596,0.027999999,-8.24,-1.03,-9.53,-8.58,78.18,0.0,-11.21,76.74,-23.47
597,0.027,-8.3,-1.21,-9.35,-9.54,76.79,0.0,-11.17,75.87,-23.5
598,0.028999997,-8.36,-1.08,-9.27,-8.72,77.03,0.0,-11.17,75.01,-23.72
599,0.027999999,-8.21,-1.24,-9.07,-9.76,75.37,0.0,-11.66,74.1,-23.93
600,0.027999999,-8.19,-1.27,-9.32,-10.05,76.19,0.0,-11.85,73.22,-24.13
601,0.027999999,-8.14,-1.19,-8.75,-9.48,73.99,0.0,-11.99,72.28,-24.34
602,0.028999997,-8.18,-1.39,-8.72,-10.63,73.18,0.0,-12.51,71.39,-24.56
603,0.027,-8.2,-1.34,-8.39,-10.23,71.92,0.0,-13.1,70.52,-24.83
604,0.028999997,-8.22,-1.49,-8.32,-11.04,71.13,0.0,-13.49,69.75,-25.08
605,0.028999997,-8.21,-1.42,-8.2,-10.63,70.79,0.0,-13.62,69.01,-25.3
606,0.027999999,-8.27,-1.47,-7.92,-10.75,69.49,0.0,-13.52,68.18,-25.49
607,0.028999997,-8.13,-1.55,-7.77,-11.29,68.27,0.0,-13.68,67.42,-25.64
608,0.028999997,-8.05,-1.56,-7.78,-11.47,68.09,0.0,-13.75,66.82,-25.71
609,0.027999999,-7.97,-1.6,-7.74,-11.74,67.61,0.0,-13.59,66.33,-25.7
610,0.028999997,-7.97,-1.55,-7.7,-11.48,67.56,0.0,-13.23,65.8,-25.7
611,0.028999997,-7.92,-1.54,-7.36,-11.34,65.85,0.0,-12.85,65.31,-25.69
612,0.027999999,-7.81,-1.47,-7.13,-10.97,64.69,0.0,-12.89,64.83,-25.62
613,0.028999997,-7.88,-1.53,-7.48,-11.33,66.39,0.0,-13.16,64.36,-25.55
614,0.028999997,-7.8,-1.61,-7.25,-11.79,64.89,0.0,-13.08,63.97,-25.54
615,0.027999999,-7.76,-1.51,-7.37,-11.33,65.6,0.0,-12.96,63.67,-25.54
616,0.027999999,-7.75,-1.47,-7.14,-11.0,64.58,0.0,-12.94,63.27,-25.59
617,0.028999997,-7.73,-1.51,-7.01,-11.18,63.85,0.0,-13.18,62.88,-25.63
618,0.027999999,-7.78,-1.59,-6.98,-11.58,63.61,0.0,-13.32,62.55,-25.67
619,0.028999997,-7.79,-1.5,-7.17,-11.13,64.8,0.0,-13.21,62.33,-25.71
620,0.028999997,-7.75,-1.56,-6.88,-11.42,63.16,0.0,-13.19,61.96,-25.82
621,0.027999999,-7.71,-1.61,-6.86,-11.7,62.83,0.0,-13.39,61.6,-25.85
622,0.028999997,-7.72,-1.61,-6.67,-11.61,61.96,0.0,-13.52,61.26,-25.88
623,0.028999997,-7.67,-1.6,-6.66,-11.63,61.79,0.0,-13.7,60.92,-25.94
624,0.027999999,-7.71,-1.58,-6.72,-11.51,62.25,0.0,-13.77,60.65,-26.0
625,0.028999997,-7.66,-1.6,-6.53,-11.57,61.16,0.0,-13.95,60.36,-26.1
626,0.028999997,-7.63,-1.63,-6.8,-11.91,62.28,0.0,-13.68,60.21,-26.24
627,0.027999999,-7.67,-1.66,-6.57,-11.9,61.26,0.0,-13.42,60.03,-26.36
628,0.028999997,-7.63,-1.75,-6.26,-12.3,59.52,0.0,-13.25,59.76,-26.43
629,0.028999997,-7.6,-1.67,-6.29,-11.89,59.76,0.0,-13.04,59.51,-26.45
630,0.027999999,-7.68,-1.64,-6.56,-11.8,61.27,0.0,-12.84,59.22,-26.46
631,0.027999999,-7.65,-1.7,-6.33,-12.0,60.02,0.0,-12.71,58.88,-26.44
632,0.028999997,-7.51,-1.7,-6.45,-12.22,60.2,0.0,-12.78,58.59,-26.35
633,0.027999999,-7.57,-1.64,-6.3,-11.75,59.79,0.0,-12.71,58.3,-26.32
634,0.028999997,-7.42,-1.5,-6.36,-11.14,59.89,0.0,-12.85,57.96,-26.27
635,0.028999997,-7.44,-1.61,-6.26,-11.71,59.26,0.0,-13.07,57.62,-26.26
636,0.027999999,-7.48,-1.68,-6.25,-12.02,59.22,0.0,-13.3,57.27,-26.32
637,0.028999997,-7.43,-1.64,-6.12,-11.78,58.54,0.0,-13.35,56.95,-26.37
638,0.028999997,-7.41,-1.72,-6.09,-12.24,58.15,0.0,-13.59,56.66,-26.37
639,0.027999999,-7.53,-1.67,-6.1,-11.85,58.67,0.0,-13.68,56.44,-26.42
640,0.028999997,-7.33,-1.75,-5.83,-12.34,56.7,0.0,-13.56,56.19,-26.52
641,0.028999997,-7.33,-1.72,-5.87,-12.21,56.93,0.0,-13.55,55.93,-26.55
642,0.027999999,-7.4,-1.76,-5.83,-12.34,56.89,0.0,-13.42,55.65,-26.54
643,0.028999997,-7.35,-1.7,-5.74,-11.99,56.48,0.0,-13.09,55.36,-26.5
644,0.028999997,-7.31,-1.61,-5.73,-11.5,56.49,0.0,-13.08,55.09,-26.41
645,0.027,-7.24,-1.54,-5.77,-11.2,56.52,0.0,-12.93,54.82,-26.38
646,0.028999997,-7.1,-1.59,-5.64,-11.54,55.4,0.0,-12.9,54.51,-26.34
647,0.028999997,-7.17,-1.63,-5.72,-11.74,55.92,0.0,-12.95,54.32,-26.29
648,0.027999999,-7.25,-1.7,-5.52,-11.95,55.18,0.0,-12.96,54.08,-26.26
649,0.028999997,-7.21,-1.65,-5.49,-11.66,55.02,0.0,-13.02,53.81,-26.23
650,0.028999997,-7.05,-1.62,-5.5,-11.69,54.59,0.0,-13.15,53.45,-26.14
651,0.027999999,-7.15,-1.75,-5.46,-12.29,54.5,0.0,-13.35,53.11,-26.14
652,0.028999997,-7.1,-1.63,-5.4,-11.64,54.27,0.0,-13.33,52.79,-26.2
653,0.028999997,-7.15,-1.68,-5.29,-11.76,53.89,0.0,-13.23,52.43,-26.28
654,0.027999999,-7.09,-1.77,-4.89,-12.04,51.88,0.0,-13.19,52.04,-26.27
655,0.028999997,-7.14,-1.63,-5.02,-11.33,52.79,0.0,-13.17,51.71,-26.23
656,0.028999997,-6.98,-1.44,-5.19,-10.52,53.2,0.0,-12.89,51.45,-26.23
657,0.027999999,-7.0,-1.57,-4.75,-10.95,51.26,0.0,-12.63,51.16,-26.21
658,0.028999997,-7.1,-1.63,-4.92,-11.34,52.2,0.0,-12.33,50.96,-26.18
659,0.027999999,-7.02,-1.57,-5.02,-11.12,52.45,0.0,-12.05,50.78,-26.1
660,0.027999999,-6.91,-1.6,-4.8,-11.21,51.1,0.0,-11.72,50.46,-26.07
661,0.028999997,-6.81,-1.5,-4.91,-10.8,51.34,0.0,-11.39,50.17,-26.01
662,0.028999997,-6.79,-1.39,-4.8,-10.17,50.89,0.0,-11.08,49.83,-26.01
663,0.027999999,-6.79,-1.39,-4.75,-10.1,50.72,0.0,-10.78,49.59,-26.02
664,0.028999997,-6.66,-1.45,-4.65,-10.52,49.73,0.0,-10.63,49.3,-26.05
665,0.028999997,-6.81,-1.41,-4.77,-10.21,50.84,0.0,-10.65,49.0,-26.03
666,0.027999999,-6.81,-1.32,-4.6,-9.63,50.24,0.0,-10.36,48.79,-26.05
667,0.028999997,-6.76,-1.31,-4.54,-9.55,49.82,0.0,-10.16,48.61,-26.07
668,0.027999999,-6.82,-1.31,-4.53,-9.5,49.98,0.0,-9.93,48.46,-26.02
669,0.027999999,-6.68,-1.34,-4.38,-9.68,48.82,0.0,-9.75,48.2,-25.94
670,0.027999999,-6.56,-1.22,-4.37,-9.12,48.45,0.0,-9.54,47.88,-25.86
671,0.028999997,-6.55,-1.1,-4.32,-8.43,48.34,0.0,-9.35,47.49,-25.77
672,0.027,-6.53,-1.16,-4.38,-8.77,48.42,0.0,-9.27,47.11,-25.72
673,0.027999999,-6.55,-1.25,-4.17,-9.15,47.56,0.0,-9.08,46.84,-25.69
674,0.028999997,-6.45,-1.2,-4.11,-8.91,47.0,0.0,-8.78,46.55,-25.63
675,0.027,-6.43,-1.01,-4.22,-7.91,47.55,0.0,-8.54,46.35,-25.64
676,0.027999999,-6.4,-1.1,-4.13,-8.41,46.96,0.0,-8.27,46.27,-25.66
677,0.028999997,-6.37,-1.16,-4.08,-8.73,46.6,0.0,-8.32,46.19,-25.59
678,0.027,-6.46,-1.17,-4.0,-8.65,46.63,0.0,-8.32,46.05,-25.5
679,0.027999999,-6.47,-1.15,-3.96,-8.53,46.56,0.0,-8.23,45.91,-25.42
680,0.027999999,-6.39,-0.98,-4.03,-7.67,46.63,0.0,-8.27,45.69,-25.37
681,0.027,-6.3,-0.86,-4.03,-7.05,46.36,0.0,-8.25,45.47,-25.33
682,0.027999999,-6.33,-1.0,-3.94,-7.76,46.04,0.0,-8.34,45.2,-25.35
683,0.028999997,-6.38,-1.04,-3.81,-7.91,45.68,0.0,-8.37,44.85,-25.36
684,0.027,-6.44,-1.05,-3.83,-7.93,45.98,0.0,-8.33,44.59,-25.35
685,0.027999999,-6.33,-1.03,-3.75,-7.82,45.27,0.0,-8.36,44.21,-25.25
686,0.027999999,-6.25,-0.98,-3.71,-7.57,44.81,0.0,-8.34,43.82,-25.1
687,0.027,-6.18,-0.9,-3.73,-7.17,44.66,0.0,-8.51,43.4,-24.94
688,0.028999997,-6.18,-0.91,-3.69,-7.21,44.51,0.0,-8.46,42.84,-24.89
689,0.027999999,-6.03,-0.96,-3.47,-7.48,43.03,0.0,-8.49,42.26,-24.86
690,0.027999999,-5.97,-0.96,-3.42,-7.49,42.64,0.0,-8.59,41.7,-24.74
691,0.027999999,-6.05,-1.0,-3.41,-7.64,42.85,0.0,-8.65,41.24,-24.63
692,0.027999999,-5.9,-1.04,-3.21,-7.81,41.47,0.0,-8.51,40.84,-24.62
693,0.027999999,-5.87,-1.07,-3.23,-7.99,41.43,0.0,-8.4,40.47,-24.58
694,0.027999999,-5.89,-1.0,-3.11,-7.56,41.11,0.0,-8.4,40.13,-24.51
695,0.028999997,-5.75,-0.95,-3.13,-7.36,40.65,0.0,-8.39,39.67,-24.42
696,0.027,-5.69,-0.84,-3.08,-6.77,40.29,0.0,-8.26,39.24,-24.31
697,0.028999997,-5.64,-0.83,-3.03,-6.67,39.89,0.0,-8.09,38.74,-24.23
698,0.027,-5.61,-0.85,-2.88,-6.74,39.25,0.0,-7.82,38.2,-24.22
699,0.027999999,-5.38,-0.87,-2.82,-6.93,38.05,0.0,-7.66,37.65,-24.23
700,0.027999999,-5.42,-0.87,-2.82,-6.9,38.21,0.0,-7.42,37.11,-24.17
701,0.027,-5.36,-0.8,-2.84,-6.52,38.07,0.0,-7.23,36.71,-24.1
702,0.028999997,-5.34,-0.85,-2.73,-6.79,37.55,0.0,-7.11,36.26,-24.13
703,0.027999999,-5.35,-0.75,-2.6,-6.15,37.23,0.0,-6.93,35.88,-24.14
704,0.027,-5.12,-0.74,-2.48,-6.12,35.82,0.0,-6.66,35.38,-24.24
705,0.027999999,-5.1,-0.78,-2.38,-6.3,35.41,0.0,-6.6,34.99,-24.31
706,0.027999999,-5.15,-0.6,-2.72,-5.44,36.78,0.0,-6.63,34.6,-24.33
707,0.027,-5.06,-0.63,-2.64,-5.65,36.11,0.0,-6.66,34.2,-24.35
708,0.028999997,-4.99,-0.77,-2.35,-6.26,34.78,0.0,-6.65,33.86,-24.46
709,0.027999999,-4.97,-0.78,-2.37,-6.34,34.77,0.0,-6.78,33.48,-24.54
710,0.027,-4.91,-0.78,-2.14,-6.24,33.83,0.0,-6.96,32.97,-24.56
711,0.027999999,-4.72,-0.85,-2.2,-6.74,33.1,0.0,-7.13,32.34,-24.62
712,0.027999999,-4.83,-0.82,-2.18,-6.53,33.53,0.0,-7.12,31.77,-24.62
713,0.027,-4.73,-0.79,-1.91,-6.27,32.31,0.0,-7.05,31.27,-24.65
714,0.028999997,-4.57,-0.73,-1.97,-6.01,31.79,0.0,-6.98,30.75,-24.59
715,0.027999999,-4.47,-0.8,-1.87,-6.35,30.99,0.0,-7.03,30.1,-24.57
716,0.027,-4.34,-0.73,-1.89,-6.05,30.48,0.0,-7.05,29.5,-24.47
717,0.027999999,-4.19,-0.82,-1.72,-6.47,29.26,0.0,-7.24,28.75,-24.41
718,0.027999999,-4.15,-0.88,-1.67,-6.77,28.95,0.0,-7.4,27.89,-24.39
719,0.027999999,-4.03,-0.87,-1.57,-6.71,28.11,0.0,-7.42,26.76,-24.42
720,0.027999999,-3.76,-0.93,-1.59,-7.16,26.85,0.0,-7.6,25.62,-24.38
721,0.027999999,-3.68,-0.82,-1.56,-6.53,26.4,0.0,-7.87,24.67,-24.26
722,0.027999999,-3.76,-0.97,-1.47,-7.27,26.57,0.0,-8.02,24.01,-24.19
723,0.027999999,-3.51,-0.92,-1.31,-7.01,24.94,0.0,-7.86,23.61,-24.19
724,0.027999999,-3.53,-1.04,-1.14,-7.52,24.64,0.0,-7.76,23.35,-24.3
725,0.027999999,-3.47,-0.91,-1.31,-6.93,24.8,0.0,-7.53,23.24,-24.37
726,0.028999997,-3.3,-1.02,-1.19,-7.52,23.66,0.0,-7.37,23.08,-24.41
727,0.027,-3.43,-0.81,-1.25,-6.4,24.46,0.0,-7.22,23.08,-24.35
728,0.028999997,-3.29,-0.81,-1.14,-6.37,23.52,0.0,-7.06,23.12,-24.19
729,0.027999999,-3.25,-0.69,-1.31,-5.8,23.75,0.0,-6.86,23.1,-24.05
730,0.027,-3.28,-0.81,-1.17,-6.36,23.56,0.0,-6.92,22.84,-24.02
731,0.027999999,-3.24,-0.82,-1.12,-6.4,23.24,0.0,-7.0,22.41,-24.02
732,0.027999999,-3.12,-0.91,-1.21,-6.97,22.81,0.0,-7.06,21.99,-24.08
733,0.027999999,-3.09,-0.82,-1.07,-6.42,22.4,0.0,-7.16,21.56,-24.11
734,0.027999999,-3.05,-0.86,-1.08,-6.64,22.23,0.0,-7.36,21.1,-24.08
735,0.028999997,-2.99,-0.85,-1.02,-6.58,21.82,0.0,-7.48,20.61,-24.05
736,0.027,-2.93,-0.91,-0.87,-6.81,21.22,0.0,-7.74,20.19,-23.89
737,0.028999997,-2.86,-0.88,-0.91,-6.7,20.93,0.0,-7.94,19.73,-23.85
738,0.027999999,-2.8,-0.94,-0.87,-7.0,20.54,0.0,-8.11,19.3,-23.89
739,0.027,-2.66,-0.99,-0.87,-7.33,19.84,0.0,-8.32,18.81,-23.9
740,0.028999997,-2.61,-0.9,-0.96,-6.89,19.77,0.0,-8.49,18.24,-23.91
741,0.027999999,-2.62,-1.07,-0.89,-7.73,19.62,0.0,-8.63,17.8,-23.83
742,0.027999999,-2.51,-1.03,-0.87,-7.54,19.07,0.0,-8.73,17.46,-23.76
743,0.027999999,-2.45,-1.13,-0.77,-8.06,18.56,0.0,-8.84,17.17,-23.73
744,0.027999999,-2.42,-1.13,-0.78,-8.02,18.44,0.0,-8.79,16.93,-23.78
745,0.027999999,-2.35,-1.07,-0.74,-7.72,18.0,0.0,-8.64,16.63,-23.9
746,0.027999999,-2.25,-1.1,-0.47,-7.7,17.11,0.0,-8.53,16.36,-24.0
747,0.028999997,-2.11,-1.15,-0.57,-8.09,16.51,0.0,-8.35,16.02,-24.17
748,0.027,-2.1,-1.04,-0.48,-7.44,16.38,0.0,-8.24,15.74,-24.23
749,0.028999997,-2.07,-1.05,-0.51,-7.54,16.23,0.0,-8.16,15.52,-24.31
750,0.027999999,-1.97,-1.08,-0.65,-7.82,15.93,0.0,-8.1,15.2,-24.51
751,0.027,-1.95,-1.1,-0.6,-7.85,15.75,0.0,-8.22,14.83,-24.59
752,0.028999997,-1.99,-1.07,-0.73,-7.81,16.16,0.0,-8.17,14.49,-24.64
753,0.027999999,-1.8,-0.96,-0.6,-7.17,15.03,0.0,-8.1,14.01,-24.66
754,0.027999999,-1.78,-1.14,-0.52,-8.04,14.79,0.0,-8.14,13.43,-24.63
755,0.027999999,-1.75,-1.1,-0.6,-7.91,14.72,0.0,-8.15,12.89,-24.66
756,0.027,-1.47,-1.18,-0.39,-8.2,13.01,0.0,-8.22,12.16,-24.78
757,0.027999999,-1.32,-1.14,-0.42,-8.09,12.26,0.0,-8.28,11.03,-24.88
758,0.027999999,-1.27,-1.09,-0.44,-7.8,12.04,0.0,-8.33,10.08,-24.97
759,0.027999999,-1.07,-1.19,-0.36,-8.31,10.91,0.0,-8.44,9.22,-25.02
760,0.027,-0.74,-1.23,0.08,-8.22,8.79,0.0,-8.36,8.43,-25.14
761,0.027999999,-0.86,-1.21,-0.3,-8.39,9.76,0.0,-8.37,7.98,-25.29
762,0.027,-0.78,-1.11,-0.27,-7.87,9.32,0.0,-8.23,7.55,-25.47
763,0.027,-0.56,-1.13,-0.24,-7.98,8.15,0.0,-8.05,7.24,-25.66
764,0.027999999,-0.64,-1.07,-0.32,-7.68,8.64,0.0,-7.8,7.14,-25.92
765,0.027,-0.6,-1.08,-0.19,-7.69,8.3,0.0,-7.7,6.94,-26.12
766,0.027,-0.6,-1.16,-0.15,-8.08,8.26,0.0,-7.67,6.71,-26.32
767,0.027999999,-0.43,-1.09,-0.08,-7.68,7.36,0.0,-7.62,6.53,-26.52
768,0.025999999,-0.54,-1.0,-0.2,-7.27,8.02,0.0,-7.58,6.39,-26.64
769,0.027999999,-0.38,-1.12,-0.13,-7.85,7.14,0.0,-7.56,6.13,-26.77
770,0.027,-0.3,-1.16,-0.06,-8.02,6.66,0.0,-7.54,5.81,-26.89
771,0.027,-0.35,-1.02,-0.14,-7.35,6.98,0.0,-7.53,5.58,-26.98
772,0.027999999,-0.31,-1.16,-0.06,-8.03,6.72,0.0,-7.58,5.32,-27.04
773,0.027,-0.13,-1.03,-0.09,-7.4,5.81,0.0,-7.61,5.05,-27.02
774,0.027999999,-0.06,-1.06,-0.18,-7.63,5.47,0.0,-7.69,4.63,-27.05
775,0.027999999,-0.06,-1.15,-0.13,-8.07,5.45,0.0,-7.71,4.17,-27.12
776,0.027,0.04,-1.15,-0.07,-8.03,4.89,0.0,-7.74,3.73,-27.14
777,0.027,0.04,-1.07,-0.13,-7.63,4.9,0.0,-7.79,3.23,-27.11
778,0.027999999,0.25,-1.14,-0.19,-8.06,3.87,0.0,-7.85,2.54,-27.1
779,0.027,0.39,-1.13,0.0,-7.84,3.06,0.0,-7.91,1.8,-27.13
780,0.027,0.5,-1.13,-0.02,-7.9,2.47,0.0,-7.99,1.11,-27.04
781,0.027999999,0.61,-1.14,0.14,-7.84,1.88,0.0,-8.07,0.24,-27.05
782,0.025999999,0.87,-1.2,0.04,-8.2,0.55,0.0,-8.2,-0.85,-27.08
783,0.027999999,1.02,-1.13,0.01,-7.85,-0.23,0.0,-8.36,-2.28,-27.16
784,0.027,1.28,-1.22,-0.01,-8.37,-1.59,0.0,-8.47,-3.72,-27.16
785,0.027999999,1.59,-1.23,-0.09,-8.45,-3.25,0.0,-8.64,-5.1,-27.14
786,0.027999999,1.81,-1.35,0.05,-8.95,-4.33,0.0,-8.75,-6.09,-27.13
787,0.027,1.98,-1.29,-0.09,-8.76,-5.26,0.0,-8.81,-6.47,-27.1
788,0.028999997,1.92,-1.22,-0.09,-8.39,-4.97,0.0,-8.88,-6.78,-27.08
789,0.027999999,2.08,-1.27,-0.14,-8.66,-5.85,0.0,-9.05,-7.21,-26.96
790,0.027999999,2.08,-1.27,-0.18,-8.69,-5.83,0.0,-9.18,-7.69,-26.8
791,0.027999999,2.06,-1.45,-0.16,-9.6,-5.73,0.0,-9.41,-8.28,-26.74
792,0.027999999,2.38,-1.4,-0.21,-9.36,-7.45,0.0,-9.6,-9.0,-26.71
793,0.027999999,2.45,-1.41,-0.2,-9.42,-7.77,0.0,-9.83,-9.55,-26.58
794,0.027999999,2.47,-1.55,-0.03,-9.97,-7.75,0.0,-10.09,-10.23,-26.65
795,0.028999997,2.73,-1.62,-0.16,-10.44,-9.17,0.0,-10.45,-11.21,-26.72
796,0.027999999,2.95,-1.57,-0.15,-10.12,-10.28,0.0,-10.75,-12.24,-26.78
797,0.029999997,3.12,-1.73,-0.17,-10.93,-11.14,0.0,-11.16,-13.55,-26.83
798,0.028999997,3.42,-1.69,-0.24,-10.73,-12.76,0.0,-11.54,-14.9,-26.71
799,0.028999997,3.52,-1.88,-0.41,-11.84,-13.4,0.0,-11.89,-15.97,-26.65
800,0.028999997,3.66,-1.99,-0.38,-12.31,-14.06,0.0,-12.27,-16.88,-26.59
801,0.029999997,3.64,-1.97,-0.41,-12.26,-14.0,0.0,-12.58,-17.58,-26.53
802,0.027999999,4.14,-2.04,-0.6,-12.68,-16.72,0.0,-12.82,-18.37,-26.49
803,0.028999997,3.99,-2.04,-0.69,-12.82,-16.11,0.0,-13.0,-18.99,-26.5
804,0.029999997,4.29,-2.01,-0.61,-12.48,-17.53,0.0,-13.13,-19.7,-26.5
805,0.028999997,4.26,-2.09,-0.61,-12.88,-17.33,0.0,-13.26,-20.29,-26.41
806,0.028999997,4.48,-2.12,-0.78,-13.17,-18.69,0.0,-13.41,-20.85,-26.35
807,0.028999997,4.53,-2.14,-0.85,-13.31,-19.04,0.0,-13.45,-21.3,-26.22
808,0.029999997,4.61,-2.2,-0.82,-13.54,-19.37,0.0,-13.58,-21.81,-26.12
809,0.027999999,4.83,-2.41,-0.79,-14.47,-20.28,0.0,-13.62,-22.13,-25.97
810,0.029999997,4.8,-2.22,-0.96,-13.74,-20.49,0.0,-13.57,-22.61,-25.97
811,0.028999997,4.84,-2.2,-0.95,-13.63,-20.71,0.0,-13.37,-22.96,-25.93
812,0.027999999,4.88,-1.98,-1.04,-12.58,-21.15,0.0,-13.2,-23.37,-25.83
813,0.029999997,4.94,-1.99,-1.1,-12.63,-21.6,0.0,-13.16,-23.96,-25.69
814,0.028999997,5.03,-2.17,-1.05,-13.5,-21.81,0.0,-13.07,-24.37,-25.48
815,0.028999997,5.13,-2.18,-1.14,-13.59,-22.51,0.0,-12.98,-24.78,-25.22
816,0.028999997,5.18,-2.15,-1.05,-13.3,-22.55,0.0,-12.75,-25.08,-25.05
817,0.029999997,5.14,-2.03,-1.22,-12.91,-22.77,0.0,-12.52,-25.31,-24.77
818,0.027999999,5.19,-1.92,-1.21,-12.3,-23.07,0.0,-12.38,-25.66,-24.39
819,0.028999997,5.3,-2.19,-1.1,-13.51,-23.25,0.0,-12.41,-26.03,-24.09
820,0.029999997,5.39,-2.23,-1.16,-13.72,-23.76,0.0,-12.57,-26.54,-23.97
821,0.027999999,5.42,-2.13,-1.25,-13.29,-24.11,0.0,-12.68,-27.05,-23.69
822,0.029999997,5.56,-2.2,-1.24,-13.58,-24.72,0.0,-12.81,-27.64,-23.39
823,0.028999997,5.72,-2.27,-1.36,-14.0,-25.73,0.0,-12.92,-28.16,-23.1
824,0.028999997,5.69,-2.18,-1.38,-13.57,-25.71,0.0,-12.94,-28.63,-22.8
825,0.028999997,5.73,-2.22,-1.42,-13.77,-25.92,0.0,-13.09,-29.25,-22.72
826,0.029999997,5.99,-2.36,-1.53,-14.48,-27.32,0.0,-13.2,-29.83,-22.59
827,0.028999997,5.94,-2.39,-1.53,-14.66,-27.07,0.0,-13.39,-30.5,-22.4
828,0.027999999,6.0,-2.4,-1.77,-14.93,-27.92,0.0,-13.63,-31.27,-22.25
829,0.029999997,6.06,-2.4,-1.83,-14.99,-28.34,0.0,-13.74,-31.97,-22.14
830,0.028999997,6.34,-2.4,-1.79,-14.74,-29.5,0.0,-13.81,-32.65,-22.0
831,0.028999997,6.49,-2.56,-1.97,-15.65,-30.52,0.0,-13.91,-33.25,-21.89
832,0.028999997,6.43,-2.49,-1.87,-15.25,-30.06,0.0,-14.03,-33.75,-21.8
833,0.029999997,6.61,-2.41,-2.06,-14.92,-31.42,0.0,-14.16,-34.46,-21.76
834,0.027999999,6.7,-2.56,-2.02,-15.56,-31.61,0.0,-14.29,-35.01,-21.77
835,0.028999997,6.84,-2.55,-2.21,-15.66,-32.74,0.0,-14.41,-35.69,-21.84
836,0.029999997,7.06,-2.58,-2.26,-15.68,-33.8,0.0,-14.54,-36.42,-21.86
837,0.027999999,6.94,-2.47,-2.42,-15.39,-33.84,0.0,-14.61,-36.98,-21.81
838,0.029999997,7.09,-2.51,-2.46,-15.53,-34.58,0.0,-14.69,-37.67,-21.87
839,0.028999997,7.25,-2.53,-2.54,-15.59,-35.49,0.0,-14.75,-38.32,-21.93
840,0.028999997,7.3,-2.52,-2.65,-15.62,-36.04,0.0,-14.85,-39.04,-21.94
841,0.028999997,7.45,-2.5,-2.74,-15.45,-36.94,0.0,-15.03,-39.74,-22.09
842,0.029999997,7.39,-2.53,-2.83,-15.79,-36.93,0.0,-15.14,-40.33,-22.06
843,0.027999999,7.47,-2.6,-2.92,-16.18,-37.5,0.0,-15.3,-40.96,-22.01
844,0.028999997,7.69,-2.62,-2.92,-16.04,-38.4,0.0,-15.42,-41.45,-22.0
845,0.029999997,7.71,-2.67,-2.95,-16.32,-38.5,0.0,-15.5,-41.96,-22.07
846,0.027999999,7.78,-2.63,-3.06,-16.17,-39.21,0.0,-15.54,-42.51,-22.1
847,0.029999997,7.88,-2.66,-3.06,-16.25,-39.57,0.0,-15.55,-43.08,-21.95
848,0.028999997,7.9,-2.58,-3.3,-16.07,-40.5,0.0,-15.69,-43.78,-21.87
849,0.029999997,8.01,-2.61,-3.39,-16.22,-41.2,0.0,-15.86,-44.48,-21.89
850,0.027999999,8.12,-2.68,-3.46,-16.51,-41.82,0.0,-15.94,-45.15,-21.75
851,0.028999997,8.16,-2.79,-3.51,-17.1,-41.98,0.0,-16.11,-45.84,-21.7
852,0.029999997,8.34,-2.7,-3.86,-16.83,-43.96,0.0,-16.15,-46.53,-21.67
853,0.027999999,8.36,-2.75,-3.84,-17.02,-43.89,0.0,-16.22,-46.97,-21.61
854,0.029999997,8.4,-2.63,-3.99,-16.54,-44.76,0.0,-16.27,-47.59,-21.59
855,0.028999997,8.43,-2.8,-3.98,-17.41,-44.57,0.0,-16.37,-48.2,-21.53
856,0.028999997,8.53,-2.71,-4.01,-16.81,-45.18,0.0,-16.5,-48.77,-21.54
857,0.028999997,8.63,-2.75,-4.26,-17.18,-46.4,0.0,-16.58,-49.36,-21.43
858,0.029999997,8.7,-2.86,-4.35,-17.76,-46.78,0.0,-16.68,-49.94,-21.32
859,0.027999999,8.71,-2.75,-4.31,-17.13,-46.87,0.0,-16.8,-50.38,-21.31
860,0.028999997,8.85,-2.84,-4.48,-17.59,-47.84,0.0,-16.92,-50.83,-21.29
861,0.029999997,8.84,-2.77,-4.68,-17.47,-48.64,0.0,-17.05,-51.31,-21.34
862,0.027999999,8.9,-2.88,-4.67,-17.94,-48.59,0.0,-17.24,-51.69,-21.22
863,0.029999997,9.0,-3.0,-4.83,-18.59,-49.32,0.0,-17.48,-52.35,-21.12
864,0.028999997,9.01,-2.99,-4.76,-18.46,-49.12,0.0,-17.69,-53.03,-21.06
865,0.028999997,9.07,-2.96,-5.07,-18.49,-50.53,0.0,-17.77,-53.56,-20.95
866,0.028999997,9.22,-3.12,-5.14,-19.18,-50.93,0.0,-17.92,-54.11,-20.94
867,0.028999997,9.17,-3.12,-5.22,-19.36,-51.04,0.0,-18.07,-54.37,-20.9
868,0.029999997,9.11,-3.08,-5.23,-19.23,-50.98,0.0,-18.23,-54.71,-20.92
869,0.027999999,9.25,-2.92,-5.47,-18.44,-52.68,0.0,-18.57,-55.32,-21.01
870,0.029999997,9.35,-3.1,-5.54,-19.29,-52.88,0.0,-18.74,-55.69,-20.94
871,0.028999997,9.37,-3.16,-5.43,-19.45,-52.38,0.0,-18.81,-55.96,-21.0
872,0.028999997,9.47,-3.18,-5.71,-19.67,-53.67,0.0,-19.01,-56.36,-21.1
873,0.028999997,9.45,-3.06,-5.85,-19.24,-54.38,0.0,-18.9,-56.66,-21.02
874,0.029999997,9.51,-3.15,-5.87,-19.62,-54.46,0.0,-18.83,-57.03,-20.93
875,0.027999999,9.49,-3.17,-5.74,-19.6,-53.87,0.0,-18.94,-57.33,-20.97
876,0.028999997,9.47,-3.09,-5.97,-19.45,-54.86,0.0,-19.01,-57.73,-20.95
877,0.029999997,9.36,-3.11,-5.82,-19.62,-53.87,0.0,-19.08,-58.05,-20.9
878,0.027999999,9.48,-3.1,-6.03,-19.56,-55.04,0.0,-19.1,-58.36,-20.9
879,0.029999997,9.63,-3.12,-6.01,-19.4,-55.44,0.0,-19.01,-58.59,-20.81
880,0.028999997,9.53,-3.05,-6.05,-19.25,-55.44,0.0,-18.82,-58.89,-20.74
881,0.028999997,9.57,-3.16,-6.13,-19.79,-55.56,0.0,-18.58,-59.2,-20.66
882,0.028999997,9.59,-3.09,-6.3,-19.59,-56.41,0.0,-18.47,-59.56,-20.63
883,0.028999997,9.64,-3.16,-6.33,-19.88,-56.49,0.0,-18.43,-59.84,-20.57
884,0.028999997,9.76,-3.22,-6.36,-19.99,-56.79,0.0,-18.41,-60.16,-20.55
885,0.028999997,9.67,-3.12,-6.29,-19.56,-56.56,0.0,-18.34,-60.36,-20.59
886,0.029999997,9.73,-3.16,-6.37,-19.76,-56.92,0.0,-18.35,-60.64,-20.6
887,0.027999999,9.78,-3.04,-6.53,-19.18,-57.98,0.0,-18.19,-60.89,-20.52
888,0.029999997,9.7,-3.08,-6.56,-19.56,-57.75,0.0,-18.05,-61.12,-20.5
889,0.028999997,9.96,-3.12,-6.73,-19.44,-59.0,0.0,-17.82,-61.31,-20.45
890,0.029999997,9.9,-3.13,-6.61,-19.53,-58.37,0.0,-17.76,-61.51,-20.44
891,0.027999999,9.8,-3.12,-6.54,-19.57,-57.85,0.0,-17.69,-61.57,-20.44
892,0.028999997,9.86,-3.13,-6.71,-19.64,-58.62,0.0,-17.65,-61.63,-20.45
893,0.029999997,9.75,-3.11,-6.61,-19.66,-58.0,0.0,-17.56,-61.69,-20.48
894,0.027999999,9.77,-3.1,-6.7,-19.67,-58.41,0.0,-17.55,-61.65,-20.56
895,0.029999997,9.75,-2.95,-6.69,-18.9,-58.77,0.0,-17.45,-61.57,-20.6
896,0.028999997,9.87,-3.1,-6.7,-19.48,-58.71,0.0,-17.46,-61.43,-20.65
897,0.028999997,9.99,-3.16,-6.59,-19.52,-58.44,0.0,-17.47,-61.25,-20.78
898,0.028999997,9.85,-2.93,-6.68,-18.62,-59.05,0.0,-17.41,-61.02,-20.9
899,0.028999997,9.8,-3.02,-6.57,-19.11,-58.24,0.0,-17.38,-60.75,-20.99
900,0.028999997,9.89,-3.12,-6.56,-19.42,-58.21,0.0,-17.42,-60.5,-21.13
901,0.028999997,9.73,-2.91,-6.61,-18.62,-58.52,0.0,-17.3,-60.22,-21.19
902,0.029999997,9.79,-2.92,-6.48,-18.5,-58.17,0.0,-17.11,-59.82,-21.17
903,0.027999999,9.87,-3.02,-6.5,-18.89,-58.19,0.0,-17.08,-59.47,-21.3
904,0.029999997,9.77,-2.94,-6.33,-18.54,-57.5,0.0,-16.99,-59.0,-21.39
905,0.028999997,9.82,-2.88,-6.3,-18.12,-57.7,0.0,-17.0,-58.62,-21.54
906,0.028999997,10.09,-3.12,-7.0,-19.44,-60.32,0.0,-17.16,-58.06,-21.72
907,0.028999997,9.73,-2.92,-5.98,-18.18,-56.13,0.0,-17.14,-57.51,-21.91
908,0.029999997,9.68,-2.8,-6.06,-17.72,-56.58,0.0,-17.13,-57.06,-22.03
909,0.027999999,9.64,-2.83,-6.02,-17.89,-56.2,0.0,-17.04,-56.52,-22.15
910,0.029999997,9.5,-2.74,-6.08,-17.66,-56.27,0.0,-17.14,-56.06,-22.21
911,0.028999997,9.63,-2.86,-5.84,-17.9,-55.46,0.0,-17.22,-55.43,-22.34
912,0.028999997,9.55,-2.89,-5.65,-18.03,-54.42,0.0,-17.25,-54.82,-22.47
913,0.028999997,9.61,-2.85,-5.75,-17.83,-55.04,0.0,-17.11,-54.34,-22.54
914,0.028999997,9.5,-2.65,-5.5,-16.73,-54.22,0.0,-17.07,-53.82,-22.64
915,0.029999997,9.62,-2.71,-5.61,-16.96,-54.91,0.0,-17.03,-53.24,-22.74
916,0.027999999,9.51,-2.69,-5.42,-16.85,-53.85,0.0,-16.88,-52.76,-22.83
917,0.029999997,9.53,-2.72,-5.23,-16.82,-53.12,0.0,-16.8,-52.28,-22.97
918,0.028999997,9.46,-2.78,-5.19,-17.17,-52.63,0.0,-16.69,-51.77,-23.07
919,0.027999999,9.38,-2.55,-5.14,-16.04,-52.62,0.0,-16.63,-51.25,-23.31
920,0.029999997,9.39,-2.57,-5.12,-16.12,-52.57,0.0,-16.46,-50.6,-23.48
921,0.028999997,9.26,-2.61,-4.79,-16.21,-50.8,0.0,-16.28,-50.04,-23.71
922,0.028999997,9.11,-2.44,-4.7,-15.41,-50.29,0.0,-15.86,-49.46,-23.75
923,0.028999997,9.03,-2.53,-4.7,-16.0,-49.82,0.0,-15.66,-48.8,-23.97
924,0.029999997,9.06,-2.46,-4.55,-15.45,-49.5,0.0,-15.42,-48.19,-24.1
925,0.027999999,9.04,-2.36,-4.5,-14.88,-49.43,0.0,-15.28,-47.64,-24.36
926,0.029999997,8.89,-2.39,-4.38,-15.1,-48.37,0.0,-15.13,-46.99,-24.57
927,0.028999997,9.03,-2.2,-4.45,-14.04,-49.43,0.0,-14.92,-46.45,-24.8
928,0.027999999,8.87,-2.33,-4.26,-14.7,-47.96,0.0,-14.66,-45.82,-24.91
929,0.029999997,8.75,-2.23,-4.09,-14.18,-47.02,0.0,-14.56,-45.24,-25.11
930,0.028999997,8.89,-2.32,-4.02,-14.44,-47.17,0.0,-14.52,-44.77,-25.21
931,0.029999997,8.76,-2.14,-3.95,-13.56,-46.67,0.0,-14.28,-44.19,-25.31
932,0.027999999,8.64,-2.11,-3.91,-13.51,-46.13,0.0,-14.08,-43.74,-25.39
933,0.029999997,8.58,-2.13,-3.54,-13.35,-44.53,0.0,-13.84,-43.18,-25.45
934,0.028999997,8.48,-2.11,-3.44,-13.25,-43.84,0.0,-13.67,-42.76,-25.48
935,0.027999999,8.38,-1.92,-3.67,-12.52,-44.49,0.0,-13.41,-42.37,-25.53
936,0.029999997,8.38,-2.0,-3.5,-12.79,-43.78,0.0,-13.21,-41.81,-25.6
937,0.028999997,8.37,-2.07,-3.5,-13.16,-43.66,0.0,-13.01,-41.31,-25.67
938,0.028999997,8.29,-1.99,-3.4,-12.74,-43.09,0.0,-12.79,-40.81,-25.72
939,0.028999997,8.26,-2.01,-3.21,-12.73,-42.31,0.0,-12.49,-40.18,-25.75
940,0.029999997,8.14,-1.88,-3.09,-12.02,-41.58,0.0,-12.28,-39.67,-25.81
941,0.027999999,8.13,-1.96,-3.04,-12.44,-41.28,0.0,-12.09,-39.25,-25.82
942,0.029999997,7.95,-1.85,-3.03,-11.99,-40.61,0.0,-11.95,-38.64,-25.97
943,0.028999997,7.9,-1.88,-2.97,-12.11,-40.23,0.0,-11.77,-38.12,-25.99
944,0.027999999,7.85,-1.76,-2.92,-11.5,-39.96,0.0,-11.44,-37.53,-26.0
945,0.029999997,7.72,-1.72,-2.7,-11.21,-38.71,0.0,-11.04,-36.7,-25.88
946,0.028999997,7.67,-1.75,-2.46,-11.17,-37.73,0.0,-10.79,-35.97,-25.93
947,0.028999997,7.59,-1.71,-2.57,-11.09,-37.78,0.0,-10.68,-35.4,-26.06
948,0.028999997,7.49,-1.65,-2.42,-10.75,-36.93,0.0,-10.5,-34.86,-26.14
949,0.029999997,7.44,-1.67,-2.35,-10.81,-36.51,0.0,-10.34,-34.3,-26.17
950,0.027999999,7.33,-1.58,-2.28,-10.37,-35.85,0.0,-10.14,-33.81,-26.1
951,0.028999997,7.19,-1.57,-2.16,-10.32,-34.91,0.0,-9.99,-33.31,-26.05
952,0.029999997,7.17,-1.51,-2.22,-10.02,-35.06,0.0,-9.74,-32.69,-25.97
953,0.028999997,7.1,-1.53,-1.92,-9.95,-33.85,0.0,-9.64,-32.12,-26.05
954,0.027,7.08,-1.49,-2.01,-9.82,-34.04,0.0,-9.5,-31.59,-26.04
955,0.028999997,6.96,-1.49,-1.96,-9.87,-33.36,0.0,-9.34,-31.0,-26.09
956,0.028999997,6.82,-1.51,-1.85,-9.95,-32.45,0.0,-9.2,-30.5,-26.15
957,0.027,6.71,-1.38,-1.88,-9.33,-32.11,0.0,-9.04,-30.06,-26.17
958,0.028999997,6.72,-1.4,-1.84,-9.39,-32.05,0.0,-8.91,-29.62,-26.13
959,0.028999997,6.59,-1.32,-1.72,-8.97,-31.17,0.0,-8.72,-29.11,-26.1
960,0.027,6.41,-1.39,-1.53,-9.25,-29.81,0.0,-8.67,-28.77,-26.09
961,0.028999997,6.5,-1.38,-1.55,-9.2,-30.27,0.0,-8.6,-28.44,-26.16
962,0.027999999,6.41,-1.33,-1.49,-8.94,-29.77,0.0,-8.51,-27.98,-26.26
963,0.027999999,6.3,-1.25,-1.69,-8.69,-29.81,0.0,-8.44,-27.4,-26.4
964,0.028999997,6.31,-1.32,-1.37,-8.84,-28.98,0.0,-8.33,-26.83,-26.41
965,0.027999999,6.19,-1.37,-1.27,-9.06,-28.19,0.0,-8.28,-26.37,-26.49
966,0.027999999,6.04,-1.25,-1.21,-8.46,-27.38,0.0,-8.16,-25.94,-26.51
967,0.028999997,6.07,-1.29,-1.2,-8.66,-27.51,0.0,-8.08,-25.49,-26.57
968,0.027999999,5.89,-1.22,-1.32,-8.44,-26.94,0.0,-7.98,-24.87,-26.63
969,0.027999999,5.73,-1.19,-1.23,-8.28,-26.03,0.0,-7.85,-24.17,-26.67
970,0.028999997,5.62,-1.09,-1.33,-7.85,-25.76,0.0,-7.6,-23.44,-26.66
971,0.027999999,5.51,-1.04,-0.99,-7.42,-24.49,0.0,-7.39,-22.58,-26.67
972,0.027999999,5.44,-1.1,-0.89,-7.68,-23.94,0.0,-7.28,-21.83,-26.76
973,0.028999997,5.27,-1.09,-0.81,-7.62,-22.94,0.0,-7.12,-21.15,-26.87
974,0.027999999,5.15,-0.94,-0.84,-6.89,-22.46,0.0,-6.96,-20.57,-26.9
975,0.027999999,5.18,-1.02,-0.56,-7.15,-22.07,0.0,-6.77,-20.01,-26.94
976,0.028999997,5.07,-1.03,-0.52,-7.21,-21.47,0.0,-6.69,-19.62,-27.05
977,0.027999999,4.97,-0.98,-0.68,-7.08,-21.26,0.0,-6.58,-19.24,-27.13
978,0.027999999,4.74,-0.83,-0.63,-6.32,-20.13,0.0,-6.37,-18.69,-27.18
979,0.028999997,4.71,-0.89,-0.59,-6.57,-19.88,0.0,-6.18,-18.13,-27.18
980,0.027999999,4.65,-0.81,-0.55,-6.19,-19.53,0.0,-6.0,-17.58,-27.27
981,0.027999999,4.44,-0.86,-0.5,-6.44,-18.38,0.0,-5.81,-16.91,-27.37
982,0.028999997,4.42,-0.79,-0.43,-6.02,-18.19,0.0,-5.57,-16.19,-27.47
983,0.027999999,4.28,-0.7,-0.49,-5.65,-17.63,0.0,-5.39,-15.58,-27.63
984,0.028999997,4.19,-0.63,-0.47,-5.28,-17.16,0.0,-5.09,-14.93,-27.68
985,0.027999999,4.14,-0.6,-0.24,-5.0,-16.55,0.0,-4.92,-14.31,-27.81
986,0.027999999,3.98,-0.88,-0.14,-6.41,-15.6,0.0,-4.89,-13.8,-28.09
987,0.028999997,3.93,-0.62,-0.22,-5.12,-15.46,0.0,-4.77,-13.39,-28.21
988,0.027999999,3.86,-0.62,-0.3,-5.2,-15.24,0.0,-4.6,-13.08,-28.25
989,0.027999999,3.71,-0.4,-0.26,-4.05,-14.44,0.0,-4.34,-12.65,-28.31
990,0.028999997,3.72,-0.56,-0.22,-4.86,-14.46,0.0,-4.2,-12.13,-28.36
991,0.027999999,3.59,-0.44,-0.18,-4.21,-13.74,0.0,-4.01,-11.57,-28.39
992,0.027999999,3.41,-0.45,-0.13,-4.27,-12.78,0.0,-3.83,-11.06,-28.48
993,0.028999997,3.36,-0.39,-0.16,-4.0,-12.55,0.0,-3.64,-10.55,-28.53
994,0.027999999,3.32,-0.39,-0.1,-3.95,-12.26,0.0,-3.48,-10.08,-28.52
995,0.027999999,3.09,-0.3,-0.09,-3.48,-11.1,0.0,-3.32,-9.59,-28.55
996,0.027999999,3.05,-0.37,0.03,-3.82,-10.81,0.0,-3.22,-9.11,-28.57
997,0.028999997,2.91,-0.16,-0.09,-2.79,-10.21,0.0,-3.03,-8.52,-28.5
998,0.027,2.84,-0.23,0.02,-3.1,-9.71,0.0,-2.93,-8.04,-28.58
999,0.027999999,2.78,-0.29,0.08,-3.41,-9.39,0.0,-2.82,-7.62,-28.69
1000,0.027999999,2.79,-0.15,-0.03,-2.75,-9.5,0.0,-2.69,-7.26,-28.7
1001,0.027,2.64,-0.13,0.05,-2.63,-8.69,0.0,-2.55,-6.78,-28.64
1002,0.027999999,2.46,-0.16,0.16,-2.75,-7.67,0.0,-2.39,-6.23,-28.71
1003,0.027999999,2.46,-0.07,0.19,-2.26,-7.67,0.0,-2.19,-5.67,-28.76
1004,0.027,2.28,-0.03,0.02,-2.09,-6.86,0.0,-1.97,-5.13,-28.89
1005,0.027999999,2.25,-0.09,0.06,-2.41,-6.65,0.0,-1.82,-4.47,-29.03
1006,0.027999999,2.04,-0.0,0.16,-1.93,-5.52,0.0,-1.65,-3.86,-29.2
1007,0.025999999,1.96,-0.02,0.03,-2.06,-5.19,0.0,-1.52,-3.39,-29.32
1008,0.027999999,1.97,0.06,0.12,-1.62,-5.18,0.0,-1.38,-2.85,-29.36
1009,0.027,1.75,-0.03,0.17,-2.07,-4.02,0.0,-1.18,-2.36,-29.44
1010,0.027999999,1.66,0.1,0.15,-1.4,-3.59,0.0,-0.94,-1.87,-29.61
1011,0.027999999,1.67,0.19,-0.1,-0.98,-3.72,0.0,-0.72,-1.32,-29.64
1012,0.025999999,1.41,0.28,0.01,-0.47,-2.31,0.0,-0.52,-0.78,-29.59
1013,0.027999999,1.36,0.17,0.26,-1.04,-1.97,0.0,-0.38,-0.42,-29.63
1014,0.027,1.3,0.23,0.08,-0.76,-1.73,0.0,-0.25,-0.12,-29.69
1015,0.025999999,1.24,0.26,0.14,-0.56,-1.38,0.0,-0.1,0.25,-29.74
1016,0.027999999,1.23,0.4,0.23,0.14,-1.35,0.0,0.21,0.79,-29.81
1017,0.025999999,1.05,0.4,0.22,0.12,-0.41,0.0,0.39,1.29,-29.82
1018,0.025999999,0.95,0.4,0.15,0.14,0.12,0.0,0.54,1.72,-29.86
1019,0.025999999,0.86,0.37,0.19,0.0,0.61,0.0,0.72,2.07,-29.92
1020,0.025,0.86,0.5,0.16,0.67,0.57,0.0,0.87,2.35,-30.02
1021,0.025999999,0.8,0.45,0.06,0.41,0.89,0.0,1.01,2.67,-30.05
1022,0.025999999,0.66,0.43,0.09,0.3,1.63,0.0,1.15,3.04,-30.02
1023,0.025999999,0.61,0.53,0.2,0.83,1.89,0.0,1.27,3.35,-29.96
1024,0.025999999,0.47,0.61,0.1,1.25,2.63,0.0,1.35,3.62,-29.99
1025,0.025,0.44,0.66,0.07,1.5,2.81,0.0,1.46,3.87,-29.99
1026,0.025999999,0.43,0.61,0.01,1.25,2.87,0.0,1.51,3.97,-30.09
1027,0.025999999,0.47,0.71,-0.03,1.78,2.67,0.0,1.51,3.99,-30.21
1028,0.025999999,0.39,0.59,0.02,1.15,3.05,0.0,1.52,3.94,-30.35
1029,0.025999999,0.43,0.56,0.14,0.97,2.82,0.0,1.54,3.95,-30.35
1030,0.025,0.53,0.6,0.21,1.18,2.3,0.0,1.53,3.89,-30.39
1031,0.025999999,0.42,0.67,0.04,1.57,2.92,0.0,1.5,3.8,-30.56
1032,0.025999999,0.62,0.76,-0.19,2.07,1.88,0.0,1.34,3.69,-30.9
1033,0.025,0.52,0.47,0.26,0.51,2.33,0.0,1.29,3.55,-31.44
1034,0.027,0.46,0.62,0.1,1.29,2.68,0.0,1.23,3.44,-31.89
1035,0.025,0.35,0.5,0.15,0.65,3.24,0.0,1.13,3.49,-32.13
1036,0.025999999,0.41,0.47,0.07,0.51,2.97,0.0,0.99,3.59,-32.3
1037,0.025999999,0.43,0.36,-0.06,-0.08,2.91,0.0,0.85,3.63,-32.54
1038,0.025999999,0.42,0.37,0.16,0.0,2.9,0.0,0.71,3.79,-32.62
1039,0.025999999,0.38,0.45,0.08,0.39,3.12,0.0,0.65,3.78,-32.77
1040,0.025,0.41,0.37,0.05,-0.03,2.96,0.0,0.5,3.71,-32.92
1041,0.025999999,-0.23,0.17,0.2,-1.04,6.19,0.0,0.4,3.91,-33.1
1042,0.027,0.42,0.34,0.2,-0.15,2.86,0.0,0.24,4.09,-33.35
1043,0.025,0.32,0.31,0.12,-0.31,3.38,0.0,0.07,4.23,-33.55
1044,0.027,0.35,0.29,-0.03,-0.46,3.29,0.0,-0.06,4.26,-33.7
1045,0.027,0.35,0.23,0.13,-0.72,3.23,0.0,-0.25,4.33,-33.79
1046,0.025,0.22,0.21,0.18,-0.82,3.92,0.0,-0.41,4.33,-34.11
1047,0.027,0.24,0.23,0.21,-0.74,3.81,0.0,-0.52,4.35,-34.5
1048,0.025999999,-0.91,1.66,-0.24,6.81,9.98,0.0,-0.72,4.32,-34.36
1049,0.025999999,-2.43,0.44,-0.91,0.38,18.9,0.0,-1.16,4.96,-33.81
1050,0.027999999,0.3,-0.09,0.1,-2.4,3.54,0.0,-1.4,4.94,-33.74
1051,0.025999999,0.43,-0.14,0.2,-2.65,2.8,0.0,-1.6,4.88,-33.86
1052,0.027,0.21,-0.09,0.07,-2.4,3.98,0.0,-1.81,4.9,-34.04
1053,0.027,0.27,-0.08,-0.0,-2.37,3.72,0.0,-2.01,4.85,-34.26
1054,0.027,0.24,-0.08,-0.08,-2.41,3.91,0.0,-2.28,4.91,-34.25
1055,0.027,0.1,-0.06,-0.07,-2.31,4.64,0.0,-2.57,5.17,-34.3
1056,0.027,0.17,-0.17,0.03,-2.86,4.19,0.0,-2.85,5.36,-34.4
1057,0.027,0.05,-0.34,0.05,-3.73,4.85,0.0,-3.31,5.64,-34.4
1058,0.027,0.11,-0.39,-0.02,-4.01,4.54,0.0,-3.72,5.96,-34.32
1059,0.025999999,0.02,-0.4,-0.01,-4.05,5.0,0.0,-4.03,6.05,-34.13
1060,0.027999999,-0.07,-0.54,-0.02,-4.8,5.46,0.0,-4.39,6.09,-33.94
1061,0.027,-0.12,-0.52,0.05,-4.64,5.73,0.0,-4.65,6.19,-33.97
1062,0.027,-0.02,-0.6,-0.08,-5.14,5.26,0.0,-4.95,6.28,-33.97
1063,0.027,-0.15,-0.58,0.03,-4.96,5.88,0.0,-5.24,6.37,-33.91
1064,0.027,-0.08,-0.65,-0.14,-5.43,5.61,0.0,-5.74,6.57,-33.87
1065,0.027,-0.2,-0.77,-0.02,-5.98,6.15,0.0,-6.31,6.75,-33.81
1066,0.027999999,-0.15,-0.78,-0.16,-6.13,5.97,0.0,-6.88,6.83,-33.75
1067,0.027,-0.28,-1.01,0.02,-7.22,6.51,0.0,-7.41,6.91,-33.7
1068,0.027,-0.26,-0.9,-0.1,-6.71,6.48,0.0,-7.79,7.02,-33.6
1069,0.027999999,-0.27,-1.12,-0.11,-7.84,6.56,0.0,-8.25,7.12,-33.55
1070,0.027,-0.23,-1.13,-0.13,-7.93,6.35,0.0,-8.62,7.17,-33.53
1071,0.027,-0.33,-1.3,-0.08,-8.77,6.82,0.0,-8.99,7.22,-33.5
1072,0.027999999,-0.3,-1.27,-0.2,-8.71,6.74,0.0,-9.34,7.25,-33.51
1073,0.027,-0.35,-1.35,-0.21,-9.14,7.01,0.0,-9.76,7.31,-33.46
1074,0.027,-0.19,-1.34,-0.21,-9.1,6.17,0.0,-10.17,7.47,-33.4
1075,0.027999999,-0.37,-1.47,-0.2,-9.75,7.09,0.0,-10.52,7.52,-33.41
1076,0.027,-0.41,-1.51,-0.28,-10.01,7.37,0.0,-10.98,7.59,-33.44
1077,0.027999999,-0.4,-1.64,-0.21,-10.64,7.21,0.0,-11.42,7.61,-33.4
1078,0.027999999,-0.43,-1.77,-0.21,-11.27,7.36,0.0,-11.83,7.67,-33.39
1079,0.027999999,-0.39,-1.74,-0.33,-11.26,7.23,0.0,-12.3,7.79,-33.44
1080,0.028999997,-0.46,-1.93,-0.33,-12.24,7.55,0.0,-12.75,7.92,-33.49
1081,0.027,-0.42,-1.99,-0.43,-12.65,7.41,0.0,-13.34,7.97,-33.49
1082,0.028999997,-0.5,-2.05,-0.46,-13.0,7.86,0.0,-13.84,8.09,-33.4
1083,0.027999999,-0.46,-2.13,-0.48,-13.42,7.64,0.0,-14.25,8.12,-33.38
1084,0.027,-0.52,-2.19,-0.55,-13.82,7.99,0.0,-14.63,8.2,-33.33
1085,0.028999997,-0.52,-2.27,-0.45,-14.11,7.94,0.0,-15.15,8.24,-33.24
1086,0.027999999,-0.61,-2.37,-0.47,-14.64,8.4,0.0,-15.56,8.35,-33.27
1087,0.027999999,-0.56,-2.48,-0.52,-15.28,8.12,0.0,-15.94,8.4,-33.33
1088,0.027999999,-0.62,-2.49,-0.57,-15.39,8.46,0.0,-16.32,8.49,-33.26
1089,0.027999999,-0.6,-2.49,-0.51,-15.32,8.33,0.0,-16.75,8.53,-33.21
1090,0.027999999,-0.59,-2.7,-0.6,-16.49,8.33,0.0,-17.23,8.54,-33.15
1091,0.027999999,-0.68,-2.74,-0.46,-16.46,8.66,0.0,-17.67,8.61,-33.16
1092,0.028999997,-0.57,-2.79,-0.51,-16.84,8.12,0.0,-17.97,8.61,-33.23
1093,0.027,-0.67,-2.73,-0.7,-16.79,8.8,0.0,-18.22,8.67,-33.21
1094,0.028999997,-0.67,-2.88,-0.61,-17.41,8.67,0.0,-18.74,8.75,-33.17
1095,0.027999999,-0.67,-2.99,-0.77,-18.2,8.79,0.0,-19.1,8.83,-33.19
1096,0.027,-0.75,-2.94,-0.83,-18.04,9.28,0.0,-19.46,8.91,-33.2
1097,0.028999997,-0.75,-3.19,-0.86,-19.34,9.23,0.0,-20.14,8.99,-33.16
1098,0.027999999,-0.7,-3.15,-0.9,-19.24,8.99,0.0,-20.64,9.0,-33.08
1099,0.027999999,-0.68,-3.17,-0.92,-19.38,8.94,0.0,-21.07,9.01,-33.04
1100,0.027999999,-0.77,-3.41,-0.91,-20.53,9.3,0.0,-21.48,9.06,-33.09
1101,0.028999997,-0.79,-3.48,-0.85,-20.78,9.33,0.0,-21.75,9.19,-33.19
1102,0.027,-0.75,-3.42,-0.88,-20.57,9.17,0.0,-22.02,9.24,-33.25
1103,0.027999999,-0.7,-3.59,-0.99,-21.61,8.95,0.0,-22.41,9.3,-33.28
1104,0.028999997,-0.87,-3.59,-0.88,-21.37,9.76,0.0,-22.78,9.35,-33.26
1105,0.027,-0.83,-3.67,-0.96,-21.9,9.58,0.0,-23.21,9.41,-33.28
1106,0.028999997,-0.8,-3.74,-1.0,-22.31,9.44,0.0,-23.59,9.44,-33.22
1107,0.027999999,-0.67,-3.85,-1.13,-23.19,8.79,0.0,-24.01,9.41,-33.15
1108,0.027,-0.89,-3.72,-1.17,-22.53,10.07,0.0,-24.35,9.45,-33.2
1109,0.028999997,-0.84,-3.87,-1.24,-23.44,9.77,0.0,-24.64,9.44,-33.37
1110,0.028999997,-0.79,-3.88,-1.28,-23.58,9.58,0.0,-25.03,9.43,-33.47
1111,0.027,-0.78,-4.03,-1.29,-24.37,9.47,0.0,-25.32,9.41,-33.49
1112,0.027999999,-0.86,-3.97,-1.21,-23.87,9.85,0.0,-25.49,9.4,-33.48
1113,0.028999997,-0.85,-4.15,-1.22,-24.77,9.75,0.0,-25.77,9.41,-33.54
1114,0.027,-0.8,-4.25,-1.29,-25.42,9.46,0.0,-26.01,9.4,-33.68
1115,0.028999997,-0.81,-4.21,-1.3,-25.26,9.56,0.0,-26.22,9.42,-33.8
1116,0.027,-0.77,-4.27,-1.21,-25.36,9.25,0.0,-26.45,9.45,-33.84
1117,0.028999997,-0.74,-4.25,-1.38,-25.64,9.23,0.0,-26.75,9.45,-33.82
1118,0.027999999,-0.79,-4.26,-1.36,-25.65,9.5,0.0,-26.99,9.41,-33.8
1119,0.027,-0.85,-4.47,-1.33,-26.58,9.66,0.0,-27.25,9.48,-33.82
1120,0.028999997,-0.76,-4.28,-1.61,-26.32,9.5,0.0,-27.7,9.54,-33.87
1121,0.027999999,-0.85,-4.56,-1.66,-27.75,9.91,0.0,-28.19,9.54,-33.76
1122,0.027999999,-0.87,-4.64,-1.54,-27.84,9.88,0.0,-28.54,9.58,-33.74
1123,0.027999999,-0.91,-4.67,-1.59,-28.09,10.14,0.0,-28.76,9.64,-33.76
1124,0.028999997,-0.91,-4.66,-1.63,-28.12,10.15,0.0,-28.97,9.64,-33.74
1125,0.027,-0.84,-4.72,-1.71,-28.66,9.85,0.0,-29.18,9.66,-33.68
1126,0.028999997,-0.92,-4.74,-1.61,-28.45,10.14,0.0,-29.39,9.72,-33.59
1127,0.028999997,-0.99,-4.78,-1.63,-28.64,10.54,0.0,-29.54,9.79,-33.68
1128,0.027,-0.9,-4.81,-1.59,-28.78,10.0,0.0,-29.74,9.81,-33.68
1129,0.028999997,-0.83,-4.74,-1.7,-28.72,9.77,0.0,-29.9,9.85,-33.64
1130,0.027999999,-0.99,-4.89,-1.72,-29.42,10.57,0.0,-30.01,9.95,-33.7
1131,0.027999999,-0.87,-4.77,-1.77,-29.04,10.04,0.0,-30.13,9.97,-33.74
1132,0.028999997,-0.93,-4.92,-1.77,-29.69,10.27,0.0,-30.34,10.0,-33.8
1133,0.028999997,-0.94,-4.93,-1.8,-29.84,10.35,0.0,-30.63,10.02,-33.78
1134,0.027999999,-0.96,-4.94,-1.82,-29.92,10.47,0.0,-30.9,10.04,-33.78
1135,0.027999999,-0.95,-4.85,-1.8,-29.44,10.43,0.0,-31.04,10.08,-33.73
1136,0.028999997,-0.96,-4.97,-1.86,-30.18,10.45,0.0,-31.15,10.15,-33.85
1137,0.027999999,-0.93,-4.97,-1.92,-30.35,10.35,0.0,-31.22,10.19,-33.92
1138,0.028999997,-1.04,-5.02,-1.93,-30.51,10.93,0.0,-31.27,10.3,-33.98
1139,0.028999997,-1.09,-5.0,-2.02,-30.67,11.28,0.0,-31.42,10.41,-34.01
1140,0.027999999,-1.02,-4.95,-2.03,-30.5,10.95,0.0,-31.59,10.43,-34.02
1141,0.028999997,-1.04,-4.98,-2.04,-30.63,11.04,0.0,-31.8,10.47,-34.0
1142,0.028999997,-1.0,-5.19,-1.97,-31.46,10.65,0.0,-32.11,10.52,-33.96
1143,0.027999999,-1.1,-5.22,-2.03,-31.71,11.21,0.0,-32.4,10.55,-34.01
1144,0.028999997,-1.04,-5.33,-1.99,-32.13,10.81,0.0,-32.7,10.54,-34.01
1145,0.028999997,-1.13,-5.29,-2.11,-32.17,11.42,0.0,-33.16,10.55,-33.93
1146,0.027999999,-0.99,-5.5,-2.03,-33.03,10.49,0.0,-33.53,10.5,-33.93
1147,0.028999997,-1.03,-5.39,-2.16,-32.88,10.87,0.0,-33.81,10.52,-33.94
1148,0.028999997,-1.11,-5.26,-2.22,-32.41,11.4,0.0,-33.95,10.59,-33.96
1149,0.027,-1.09,-5.44,-2.23,-33.25,11.23,0.0,-33.98,10.69,-33.98
1150,0.028999997,-1.04,-5.43,-2.18,-33.09,10.94,0.0,-34.01,10.77,-34.03
1151,0.028999997,-1.07,-5.5,-2.13,-33.25,10.99,0.0,-34.11,10.81,-34.08
1152,0.027999999,-1.11,-5.42,-2.28,-33.32,11.39,0.0,-34.18,10.83,-34.08
1153,0.028999997,-1.05,-5.49,-2.41,-34.05,11.11,0.0,-34.32,10.86,-34.13
1154,0.028999997,-1.15,-5.4,-2.37,-33.45,11.7,0.0,-34.42,10.94,-34.14
1155,0.027999999,-1.03,-5.49,-2.2,-33.43,10.85,0.0,-34.47,10.99,-34.14
1156,0.027999999,-1.09,-5.6,-2.21,-33.92,11.09,0.0,-34.52,11.07,-34.18
1157,0.028999997,-1.12,-5.55,-2.24,-33.77,11.3,0.0,-34.6,11.16,-34.24
1158,0.027999999,-1.18,-5.57,-2.33,-34.05,11.71,0.0,-34.68,11.26,-34.19
1159,0.027999999,-1.16,-5.55,-2.23,-33.71,11.52,0.0,-34.59,11.35,-34.21
1160,0.028999997,-1.24,-5.47,-2.31,-33.54,12.04,0.0,-34.6,11.48,-34.22
1161,0.027999999,-1.09,-5.63,-2.31,-34.31,11.18,0.0,-34.79,11.5,-34.28
1162,0.028999997,-1.34,-5.65,-2.22,-33.98,12.38,0.0,-35.08,11.57,-34.26
1163,0.027999999,-1.27,-5.59,-2.53,-34.68,12.36,0.0,-35.35,11.62,-34.3
1164,0.027999999,-1.25,-5.7,-2.51,-35.11,12.19,0.0,-35.67,11.67,-34.31
1165,0.028999997,-1.15,-5.6,-2.46,-34.61,11.63,0.0,-35.92,11.69,-34.34
1166,0.027999999,-1.15,-5.81,-2.51,-35.66,11.57,0.0,-36.14,11.7,-34.36
1167,0.027999999,-1.24,-5.66,-2.62,-35.29,12.25,0.0,-36.45,11.69,-34.37
1168,0.028999997,-1.24,-5.85,-2.57,-35.94,12.08,0.0,-36.86,11.69,-34.33
1169,0.027999999,-1.31,-5.85,-2.84,-36.76,12.69,0.0,-37.46,11.78,-34.37
1170,0.027999999,-1.25,-5.84,-2.8,-36.61,12.34,0.0,-37.93,11.83,-34.33
1171,0.028999997,-1.3,-5.92,-2.74,-36.75,12.5,0.0,-38.43,11.86,-34.34
1172,0.027999999,-1.35,-6.06,-2.68,-37.12,12.61,0.0,-39.14,11.89,-34.26
1173,0.027999999,-1.45,-6.24,-3.1,-39.15,13.38,0.0,-40.1,12.02,-34.16
1174,0.028999997,-1.38,-6.55,-2.84,-39.67,12.54,0.0,-41.75,12.04,-34.01
1175,0.027999999,-1.28,-6.49,-3.06,-40.24,12.22,0.0,-43.84,12.17,-33.87
1176,0.027999999,-1.4,-6.62,-4.27,-45.01,13.88,0.0,-45.95,12.39,-33.75
1177,0.028999997,-1.52,-6.83,-4.33,-45.87,14.38,0.0,-48.36,12.6,-33.66
1178,0.027999999,-1.47,-7.39,-4.75,-49.77,13.88,0.0,-50.68,12.99,-33.54
1179,0.027999999,-1.5,-7.64,-4.3,-48.85,13.42,0.0,-52.89,13.25,-33.51
1180,0.028999997,-0.42,-8.34,-4.76,-54.38,7.47,0.0,-55.27,13.43,-33.59
1181,0.027999999,-1.52,-8.01,-4.96,-52.66,13.69,0.0,-57.04,13.33,-33.62
1182,0.027999999,-1.51,-7.9,-6.01,-56.64,14.51,0.0,-58.77,13.35,-33.91
1183,0.027999999,-1.47,-8.23,-5.59,-55.99,13.62,0.0,-60.28,13.56,-34.08
1184,0.028999997,-1.5,-7.77,-6.73,-59.45,15.16,0.0,-61.84,13.77,-34.28
1185,0.027999999,-1.46,-7.69,-7.42,-62.46,15.5,0.0,-63.18,14.05,-34.28
1186,0.027999999,-1.45,-8.38,-7.02,-62.61,14.21,0.0,-64.31,14.13,-34.4
1187,0.028999997,-1.59,-8.7,-6.79,-62.08,14.48,0.0,-65.37,14.22,-34.61
1188,0.027999999,-1.44,-8.47,-7.22,-63.75,14.16,0.0,-66.12,14.24,-34.8
1189,0.028999997,-1.39,-8.69,-7.3,-64.81,13.66,0.0,-66.71,14.31,-34.87
1190,0.027999999,-1.43,-8.89,-7.2,-64.71,13.59,0.0,-67.34,14.31,-35.08
1191,0.027999999,-1.37,-8.36,-7.69,-65.72,14.15,0.0,-68.01,14.32,-35.03
1192,0.028999997,-3.32,-7.4,-6.43,-51.6,25.67,0.0,-68.53,14.55,-34.71
1193,0.027999999,-1.48,-8.87,-7.94,-67.61,14.22,0.0,-69.15,14.6,-34.73
1194,0.027999999,-1.5,-9.12,-7.86,-67.77,13.93,0.0,-69.81,14.62,-34.67
1195,0.028999997,-1.53,-8.86,-8.13,-68.19,14.57,0.0,-70.53,14.65,-34.74
1196,0.027999999,-1.49,-8.94,-8.17,-68.66,14.23,0.0,-71.11,14.72,-34.83
1197,0.027999999,-1.35,-8.91,-8.43,-70.11,13.64,0.0,-71.64,14.69,-34.77
1198,0.028999997,-1.47,-8.86,-8.41,-69.48,14.38,0.0,-72.32,14.68,-34.72
1199,0.027999999,-1.5,-8.98,-8.25,-68.99,14.29,0.0,-72.81,14.7,-34.82
1200,0.027999999,-1.43,-9.05,-8.66,-70.95,13.95,0.0,-73.21,14.69,-34.7
1201,0.028999997,-1.42,-9.04,-8.72,-71.21,13.92,0.0,-73.67,14.64,-34.67
1202,0.027999999,-1.51,-8.85,-8.62,-70.09,14.68,0.0,-74.05,14.56,-34.68
1203,0.027999999,-1.57,-9.11,-8.9,-71.34,14.71,0.0,-74.48,14.52,-34.72
1204,0.028999997,-1.53,-8.97,-8.89,-71.21,14.69,0.0,-74.77,14.63,-34.68
1205,0.027999999,-1.5,-8.82,-9.03,-71.52,14.79,0.0,-75.02,14.68,-34.59
1206,0.027999999,-1.54,-8.79,-9.12,-71.56,15.11,0.0,-75.4,14.54,-34.38
1207,0.028999997,-1.56,-9.26,-9.16,-72.48,14.5,0.0,-75.97,14.39,-34.32
1208,0.027999999,-3.67,-7.59,-8.16,-56.03,28.93,0.0,-76.0,14.81,-34.16
1209,0.027999999,-1.59,-8.98,-9.32,-72.3,15.11,0.0,-76.28,14.81,-34.13
1210,0.028999997,-1.55,-8.87,-9.4,-72.51,15.09,0.0,-76.65,14.75,-34.14
1211,0.027999999,-1.64,-8.82,-9.48,-72.19,15.72,0.0,-76.78,14.87,-34.15
1212,0.027999999,-1.5,-8.9,-9.58,-73.28,14.82,0.0,-77.0,14.9,-34.11
1213,0.028999997,-1.65,-8.98,-9.73,-73.0,15.59,0.0,-77.29,14.88,-34.14
1214,0.027999999,-1.6,-8.79,-9.89,-73.33,15.58,0.0,-77.58,14.91,-34.14
1215,0.027999999,-1.68,-8.99,-9.67,-72.75,15.72,0.0,-77.85,14.9,-34.01
1216,0.028999997,-1.69,-8.92,-9.88,-73.01,15.92,0.0,-77.95,14.97,-33.92
1217,0.027999999,-1.66,-9.15,-10.01,-73.83,15.38,0.0,-77.83,15.16,-33.94
1218,0.027999999,-1.69,-9.08,-9.95,-73.42,15.69,0.0,-77.58,15.28,-33.98
1219,0.028999997,-1.64,-9.06,-9.79,-73.34,15.4,0.0,-77.25,15.27,-34.11
1220,0.028999997,-1.72,-9.02,-9.51,-72.26,15.83,0.0,-76.44,15.23,-34.34
1221,0.027,-1.63,-8.94,-9.75,-73.13,15.51,0.0,-75.41,15.09,-34.67
1222,0.028999997,-1.52,-9.0,-9.33,-72.69,14.72,0.0,-74.25,14.82,-34.94
1223,0.028999997,-1.57,-9.04,-9.25,-72.25,14.95,0.0,-73.03,14.55,-35.23
1224,0.027,-1.5,-9.19,-9.21,-72.79,14.28,0.0,-71.92,14.46,-35.39
1225,0.028999997,-1.29,-9.0,-9.03,-72.76,13.35,0.0,-71.04,14.16,-35.36
1226,0.028999997,-1.41,-8.99,-8.78,-71.38,13.94,0.0,-70.41,13.71,-35.35
1227,0.027,-1.31,-9.12,-8.57,-71.19,13.19,0.0,-69.86,13.54,-35.33
1228,0.028999997,-1.39,-8.99,-8.62,-70.85,13.8,0.0,-69.13,13.55,-35.28
1229,0.028999997,-1.37,-8.92,-8.42,-70.02,13.73,0.0,-68.56,13.42,-35.16
1230,0.027,-1.44,-8.99,-8.26,-69.28,13.96,0.0,-68.0,13.34,-35.22
1231,0.028999997,-1.47,-8.81,-8.14,-68.31,14.35,0.0,-67.45,13.18,-35.22
1232,0.028999997,-1.54,-8.83,-7.9,-67.17,14.56,0.0,-66.81,13.21,-35.32
1233,0.027,-1.45,-8.9,-7.89,-67.58,13.97,0.0,-66.12,13.4,-35.49
1234,0.028999997,-1.41,-8.92,-7.72,-67.07,13.64,0.0,-65.55,13.22,-35.52
1235,0.028999997,-1.33,-8.86,-7.78,-67.44,13.29,0.0,-65.15,13.03,-35.56
1236,0.027999999,-1.35,-8.63,-7.51,-65.68,13.63,0.0,-64.81,12.77,-35.51
1237,0.027999999,-1.42,-8.58,-7.43,-65.01,14.03,0.0,-64.21,12.59,-35.48
1238,0.028999997,-1.41,-8.9,-7.5,-66.09,13.6,0.0,-63.66,12.5,-35.34
1239,0.027999999,-1.43,-8.71,-7.22,-64.39,13.82,0.0,-63.01,12.61,-35.31
1240,0.028999997,-1.31,-8.61,-7.21,-64.41,13.25,0.0,-62.35,12.66,-35.29
1241,0.028999997,-1.31,-8.62,-7.17,-64.28,13.22,0.0,-61.86,12.46,-35.22
1242,0.027999999,-1.41,-8.6,-7.05,-63.45,13.74,0.0,-61.33,12.25,-35.0
1243,0.028999997,-1.47,-8.52,-6.87,-62.29,14.08,0.0,-60.53,12.05,-34.63
1244,0.028999997,-1.45,-8.52,-6.81,-62.06,13.93,0.0,-59.85,12.06,-34.53
1245,0.027999999,-1.57,-8.2,-6.47,-59.42,14.77,0.0,-59.1,11.97,-34.32
1246,0.028999997,-1.5,-8.37,-6.39,-59.76,14.14,0.0,-58.18,11.88,-34.03
1247,0.027999999,-1.63,-8.23,-6.2,-58.18,14.93,0.0,-57.37,12.08,-34.02
1248,0.027999999,-1.57,-8.19,-6.08,-57.73,14.52,0.0,-56.63,12.01,-33.85
1249,0.028999997,-1.62,-8.25,-5.92,-57.13,14.63,0.0,-55.77,12.08,-33.63
1250,0.028999997,-1.7,-8.03,-5.81,-55.85,15.27,0.0,-54.95,12.25,-33.47
1251,0.027999999,-1.57,-8.02,-5.73,-55.75,14.53,0.0,-54.0,12.24,-33.35
1252,0.028999997,-1.74,-7.85,-5.52,-53.98,15.47,0.0,-53.2,12.15,-33.21
1253,0.028999997,-1.67,-7.93,-5.42,-53.97,14.91,0.0,-52.34,12.05,-33.22
1254,0.027999999,-1.72,-7.77,-5.27,-52.75,15.25,0.0,-51.33,12.04,-33.29
1255,0.028999997,-1.67,-7.81,-5.14,-52.44,14.85,0.0,-50.44,12.01,-33.35
1256,0.028999997,-1.61,-7.55,-5.0,-51.08,14.69,0.0,-49.62,12.01,-33.27
1257,0.027999999,-1.61,-7.59,-4.81,-50.47,14.51,0.0,-48.86,12.05,-33.26
1258,0.028999997,-1.62,-7.53,-4.8,-50.21,14.58,0.0,-48.05,12.2,-33.21
1259,0.028999997,-1.67,-7.47,-4.62,-49.21,14.76,0.0,-47.36,12.23,-33.11
1260,0.027999999,-1.67,-7.27,-4.58,-48.3,14.97,0.0,-46.73,12.23,-32.97
1261,0.027999999,-1.63,-7.1,-4.35,-46.87,14.72,0.0,-45.97,12.22,-32.91
1262,0.028999997,-1.55,-7.35,-4.29,-47.68,14.0,0.0,-45.05,11.98,-32.93
1263,0.027999999,-1.61,-7.0,-4.12,-45.65,14.49,0.0,-44.25,11.6,-33.04
1264,0.028999997,-1.38,-6.96,-4.03,-45.45,13.21,0.0,-43.63,10.92,-33.11
1265,0.028999997,-1.38,-6.93,-4.08,-45.54,13.31,0.0,-43.1,10.35,-32.94
1266,0.027999999,-1.51,-6.88,-3.76,-44.0,13.77,0.0,-42.53,9.95,-32.94
1267,0.028999997,-1.25,-6.93,-3.53,-43.69,12.15,0.0,-41.87,9.57,-33.1
1268,0.028999997,-1.33,-6.7,-3.38,-42.13,12.61,0.0,-41.24,9.41,-33.19
1269,0.027,-1.39,-6.68,-3.43,-42.16,12.98,0.0,-40.63,9.43,-33.32
1270,0.028999997,-1.31,-6.47,-3.18,-40.53,12.54,0.0,-39.92,9.61,-33.44
1271,0.028999997,-1.29,-6.47,-3.18,-40.57,12.41,0.0,-39.26,9.85,-33.63
1272,0.027,-1.29,-6.41,-3.08,-39.97,12.38,0.0,-38.76,10.05,-33.84
1273,0.028999997,-1.3,-6.28,-3.15,-39.64,12.61,0.0,-38.26,10.1,-34.02
1274,0.028999997,-1.3,-6.31,-2.93,-39.03,12.4,0.0,-37.38,10.18,-34.37
1275,0.027999999,-1.19,-6.26,-2.83,-38.6,11.76,0.0,-36.63,10.34,-34.64
1276,0.028999997,-1.2,-6.47,-2.78,-39.28,11.62,0.0,-36.07,10.66,-34.8
1277,0.028999997,-1.24,-6.04,-2.77,-37.44,12.08,0.0,-35.53,11.04,-35.04
1278,0.027999999,-1.19,-5.88,-2.81,-36.9,12.01,0.0,-35.02,11.3,-35.26
1279,0.028999997,-1.34,-6.0,-2.74,-37.06,12.66,0.0,-34.48,11.53,-35.56
1280,0.028999997,-1.15,-5.99,-2.56,-36.61,11.49,0.0,-33.87,11.76,-35.86
1281,0.027999999,-1.18,-5.74,-2.47,-35.25,11.73,0.0,-33.27,11.93,-35.98
1282,0.027999999,-1.24,-5.69,-2.47,-34.96,12.05,0.0,-32.8,11.97,-36.01
1283,0.028999997,-1.23,-5.52,-2.31,-33.74,11.99,0.0,-32.32,11.97,-36.16
1284,0.027999999,-1.21,-5.58,-2.4,-34.3,11.95,0.0,-31.7,11.97,-36.18
1285,0.028999997,-1.11,-5.32,-2.0,-32.03,11.17,0.0,-30.74,11.92,-36.08
1286,0.028999997,-1.24,-5.13,-2.22,-31.7,12.2,0.0,-29.91,11.84,-35.93
1287,0.027999999,-1.0,-5.2,-2.0,-31.57,10.67,0.0,-29.31,11.62,-36.18
1288,0.028999997,-1.12,-5.06,-2.04,-30.94,11.41,0.0,-28.62,11.67,-36.02
1289,0.028999997,-1.28,-5.07,-1.86,-30.43,12.1,0.0,-27.86,11.83,-36.03
1290,0.027999999,-1.28,-4.74,-1.75,-28.62,12.2,0.0,-27.09,12.09,-36.24
1291,0.028999997,-1.16,-4.66,-1.87,-28.6,11.69,0.0,-26.51,12.09,-36.5
1292,0.028999997,-1.54,-4.35,-0.93,-24.77,12.91,0.0,-25.5,12.48,-36.85
1293,0.027999999,-1.19,-4.71,-1.48,-27.84,11.49,0.0,-25.18,12.29,-36.83
1294,0.028999997,-1.05,-4.44,-1.61,-26.96,11.0,0.0,-24.65,12.15,-36.85
1295,0.028999997,-1.09,-4.39,-1.46,-26.37,11.08,0.0,-23.91,12.06,-36.88
1296,0.027999999,-1.15,-4.38,-1.41,-26.14,11.36,0.0,-23.44,12.11,-36.88
1297,0.027999999,-1.16,-4.16,-1.33,-24.91,11.43,0.0,-23.01,12.19,-36.82
1298,0.028999997,-1.24,-4.07,-1.34,-24.45,11.91,0.0,-22.69,12.26,-36.72
1299,0.027999999,-1.3,-4.01,-1.25,-23.95,12.16,0.0,-22.16,12.25,-36.72
1300,0.028999997,-1.25,-3.9,-1.26,-23.46,11.94,0.0,-21.53,12.2,-36.59
1301,0.028999997,-1.3,-3.86,-1.08,-22.85,12.06,0.0,-20.9,12.12,-36.5
1302,0.027999999,-1.14,-3.75,-1.13,-22.54,11.34,0.0,-20.43,12.03,-36.42
1303,0.028999997,-1.15,-3.7,-0.99,-21.98,11.28,0.0,-19.93,11.84,-36.39
1304,0.028999997,-1.26,-3.59,-1.16,-21.72,12.05,0.0,-19.48,11.72,-36.39
1305,0.027999999,-1.19,-3.48,-1.08,-21.05,11.65,0.0,-18.85,11.7,-36.36
1306,0.028999997,-1.16,-3.17,-1.11,-19.54,11.62,0.0,-18.02,11.81,-36.29
1307,0.028999997,-1.31,-3.21,-0.99,-19.5,12.29,0.0,-16.99,11.85,-36.26
1308,0.028999997,-1.19,-3.13,-0.76,-18.77,11.45,0.0,-16.24,11.83,-36.05
1309,0.027999999,-1.27,-2.98,-0.87,-18.16,12.05,0.0,-15.46,11.78,-35.91
1310,0.028999997,-1.32,-2.74,-0.85,-16.88,12.34,0.0,-14.47,11.77,-35.79
1311,0.027999999,-1.19,-2.6,-0.59,-15.84,11.44,0.0,-13.75,11.76,-35.74
1312,0.027999999,-1.22,-2.51,-0.57,-15.31,11.61,0.0,-13.18,11.67,-35.62
1313,0.028999997,-1.23,-2.46,-0.51,-14.99,11.59,0.0,-12.87,11.61,-35.53
1314,0.028999997,-1.24,-2.31,-0.45,-14.14,11.64,0.0,-12.6,11.66,-35.5
1315,0.027999999,-1.23,-2.13,-0.59,-13.42,11.77,0.0,-12.22,11.58,-35.59
1316,0.028999997,-1.23,-2.16,-0.55,-13.51,11.72,0.0,-11.79,11.4,-35.53
1317,0.028999997,-1.24,-1.99,-0.57,-12.66,11.84,0.0,-11.42,11.27,-35.51
1318,0.027999999,-0.51,-2.02,-0.48,-12.86,7.94,0.0,-11.16,10.91,-35.75
1319,0.028999997,-1.2,-1.94,-0.53,-12.35,11.61,0.0,-10.79,10.68,-35.9
1320,0.028999997,-1.11,-1.89,-0.36,-11.96,10.98,0.0,-10.32,10.32,-36.06
1321,0.027999999,-0.95,-1.81,-0.41,-11.62,10.2,0.0,-9.85,10.04,-36.4
1322,0.027999999,-0.84,-1.81,-0.41,-11.63,9.63,0.0,-9.4,9.77,-36.57
1323,0.027999999,-0.93,-1.58,-0.29,-10.31,10.07,0.0,-8.69,9.41,-36.72
1324,0.027999999,-0.74,-1.52,-0.25,-10.0,9.03,0.0,-7.95,9.03,-36.9
1325,0.027999999,-0.78,-1.28,-0.29,-8.78,9.3,0.0,-7.3,8.73,-37.07
1326,0.027,-0.7,-1.47,-0.2,-9.7,8.81,0.0,-6.88,8.45,-37.21
1327,0.027999999,-0.7,-1.18,-0.16,-8.18,8.81,0.0,-6.41,8.14,-37.4
1328,0.027,-0.65,-1.15,-0.24,-8.07,8.63,0.0,-5.88,7.8,-37.53
1329,0.027,-0.53,-1.02,-0.08,-7.29,7.9,0.0,-5.35,7.44,-37.59
1330,0.027,-0.49,-0.91,-0.09,-6.71,7.71,0.0,-4.82,7.18,-37.7
1331,0.027999999,-0.41,-0.91,0.07,-6.62,7.19,0.0,-4.4,7.09,-37.75
1332,0.027,-0.44,-0.75,-0.08,-5.91,7.45,0.0,-4.4,7.0,-37.71
1333,0.027,-0.48,-0.95,-0.29,-7.06,7.78,0.0,-4.24,6.74,-37.63
1334,0.027999999,-0.4,-0.78,-0.07,-6.03,7.19,0.0,-3.58,6.68,-37.6
1335,0.027,-0.39,-0.5,-0.31,-4.71,7.36,0.0,-2.85,6.54,-37.52
1336,0.027999999,-0.13,-0.12,0.41,-2.51,5.59,0.0,-1.7,6.19,-37.31
1337,0.027,-0.49,-0.28,-0.64,-3.6,8.13,0.0,-0.26,6.0,-37.16
1338,0.027,0.16,1.0,0.74,3.1,4.0,0.0,2.43,5.39,-37.07
1339,0.027,-0.01,0.5,0.17,0.64,5.08,0.0,4.36,5.3,-37.13
1340,0.025,-0.12,1.05,0.48,3.43,5.53,0.0,5.6,5.28,-37.12
1341,0.027,-0.16,1.14,0.02,4.03,5.93,0.0,6.69,5.25,-37.12
1342,0.027,-0.14,1.48,-0.16,5.9,5.92,0.0,7.88,5.14,-37.25
1343,0.025999999,-0.04,1.83,0.09,7.55,5.26,0.0,9.34,4.88,-37.33
1344,0.025999999,-0.09,1.91,-0.31,8.25,5.71,0.0,11.03,4.77,-37.33
1345,0.025999999,-0.09,2.29,-0.24,10.18,5.64,0.0,11.9,4.78,-37.18
1346,0.027999999,0.02,2.27,-0.31,10.14,5.08,0.0,13.07,4.66,-37.29
1347,0.027,0.12,2.47,-0.14,11.05,4.45,0.0,13.87,4.32,-37.38
1348,0.027,0.13,2.64,-0.26,12.04,4.47,0.0,14.47,4.17,-37.38
1349,0.027,0.21,2.82,-0.35,13.06,4.05,0.0,15.39,4.03,-37.32
1350,0.027999999,0.25,2.84,-0.13,12.94,3.76,0.0,16.56,3.89,-37.2
1351,0.025999999,0.1,3.11,-0.35,14.56,4.61,0.0,17.72,3.84,-37.16
1352,0.027,0.27,3.55,-0.46,16.94,3.73,0.0,19.0,3.66,-37.18
1353,0.027999999,0.26,3.55,-0.49,17.02,3.76,0.0,20.01,3.69,-37.29
1354,0.025999999,0.18,3.68,-0.47,17.6,4.17,0.0,20.98,3.64,-37.53
1355,0.027999999,0.28,4.17,-0.75,20.56,3.68,0.0,22.36,3.36,-37.62
1356,0.025999999,0.21,4.09,-0.74,20.15,4.05,0.0,23.41,3.28,-37.73
1357,0.027,0.22,4.39,-0.81,21.77,3.96,0.0,24.5,3.21,-37.77
1358,0.027999999,0.24,4.45,-0.83,22.11,3.86,0.0,25.45,3.09,-37.83
1359,0.025999999,0.2,4.69,-0.97,23.53,4.1,0.0,26.33,3.09,-37.9
1360,0.027999999,0.32,4.83,-1.05,24.4,3.46,0.0,27.25,2.99,-37.99
1361,0.027,0.22,5.0,-1.15,25.45,3.99,0.0,27.99,2.91,-38.13
1362,0.025999999,0.22,5.17,-1.27,26.53,4.0,0.0,28.87,2.94,-38.34
1363,0.027999999,0.23,5.26,-1.28,26.99,3.95,0.0,29.6,2.98,-38.56
1364,0.027,0.3,5.42,-1.33,27.88,3.58,0.0,30.46,3.06,-38.74
1365,0.027,0.12,5.54,-1.46,28.74,4.53,0.0,31.53,3.18,-38.92
1366,0.027,0.18,5.75,-1.53,29.89,4.21,0.0,32.48,3.2,-38.98
1367,0.025999999,0.26,5.77,-1.76,30.65,3.88,0.0,33.41,3.23,-38.98
1368,0.027999999,0.48,5.84,-1.78,31.05,2.65,0.0,34.25,3.28,-38.8
1369,0.027,0.17,6.17,-2.0,33.11,4.36,0.0,35.26,3.28,-38.78
1370,0.027,0.19,6.27,-2.08,33.81,4.26,0.0,36.31,3.36,-38.72
1371,0.027,0.29,6.45,-2.17,34.9,3.7,0.0,37.32,3.49,-38.66
1372,0.027999999,0.2,6.71,-2.16,36.0,4.13,0.0,38.1,3.5,-38.6
1373,0.025999999,0.23,6.69,-2.32,36.42,4.02,0.0,38.57,3.4,-38.56
1374,0.027,0.24,6.8,-2.24,36.61,3.88,0.0,39.07,3.21,-38.51
1375,0.027999999,0.27,6.98,-2.62,38.63,3.81,0.0,39.63,3.13,-38.42
1376,0.025999999,0.41,7.0,-2.37,37.94,2.99,0.0,40.43,3.03,-38.26
1377,0.027999999,0.36,7.15,-2.61,39.34,3.27,0.0,41.37,2.87,-38.16
1378,0.025999999,0.32,7.28,-2.76,40.43,3.49,0.0,42.14,2.78,-38.16
1379,0.027,0.4,7.27,-2.83,40.61,3.1,0.0,42.89,2.75,-38.15
1380,0.027999999,0.36,7.41,-2.94,41.54,3.31,0.0,43.9,2.65,-38.19
1381,0.025999999,0.39,7.54,-3.1,42.68,3.14,0.0,44.78,2.61,-38.22
1382,0.027999999,0.39,7.67,-3.33,44.08,3.2,0.0,45.65,2.47,-38.3
1383,0.027,0.4,7.64,-3.39,44.14,3.14,0.0,46.4,2.3,-38.34
1384,0.025999999,0.45,7.75,-3.56,45.27,2.87,0.0,47.34,2.23,-38.35
1385,0.027999999,0.43,7.97,-3.57,46.13,2.95,0.0,48.25,2.1,-38.35
1386,0.025999999,0.44,8.08,-3.67,46.92,2.89,0.0,48.85,2.0,-38.33
1387,0.027999999,0.4,8.11,-3.77,47.43,3.15,0.0,49.62,1.88,-38.34
1388,0.027,0.55,8.23,-3.93,48.58,2.34,0.0,50.39,1.8,-38.4
1389,0.025999999,0.45,8.38,-4.0,49.35,2.86,0.0,51.02,1.8,-38.41
1390,0.027999999,0.54,8.44,-4.08,49.94,2.35,0.0,51.61,1.67,-38.41
1391,0.027,0.59,8.42,-4.03,49.69,2.07,0.0,52.35,1.53,-38.42
1392,0.027,0.56,8.53,-4.35,51.39,2.29,0.0,53.28,1.35,-38.4
1393,0.027,0.66,8.64,-4.58,52.8,1.73,0.0,54.26,1.25,-38.29
1394,0.027,0.66,8.7,-4.59,53.05,1.71,0.0,55.03,1.23,-38.16
1395,0.027,0.62,8.77,-4.92,54.73,1.95,0.0,55.91,1.26,-38.1
1396,0.027,0.54,8.84,-5.01,55.32,2.41,0.0,56.73,1.32,-38.07
1397,0.027,0.6,8.97,-5.27,56.95,2.06,0.0,57.6,1.17,-38.1
1398,0.027,0.65,8.98,-5.17,56.52,1.78,0.0,58.27,0.93,-38.18
1399,0.027,1.14,8.8,-4.82,54.42,-0.91,0.0,59.19,0.61,-38.25
1400,0.027,0.58,9.1,-5.52,58.52,2.2,0.0,60.07,0.59,-38.37
1401,0.027999999,0.57,9.3,-5.68,59.83,2.24,0.0,60.97,0.42,-38.4
1402,0.027,0.62,9.28,-5.8,60.4,1.98,0.0,61.69,0.29,-38.39
1403,0.025999999,0.71,9.35,-5.92,61.19,1.47,0.0,62.42,0.22,-38.32
1404,0.027999999,0.73,9.45,-5.97,61.69,1.34,0.0,63.13,0.12,-38.22
1405,0.027,0.77,9.44,-6.05,62.1,1.11,0.0,63.74,0.1,-38.14
1406,0.027,0.77,9.52,-6.27,63.41,1.11,0.0,64.38,0.13,-38.09
1407,0.027,0.77,9.56,-6.36,63.95,1.13,0.0,64.93,0.18,-38.07
1408,0.025999999,0.82,9.58,-6.53,64.84,0.84,0.0,65.4,0.15,-38.01
1409,0.027999999,0.77,9.55,-6.51,64.64,1.15,0.0,65.79,0.03,-37.92
1410,0.027,0.87,9.68,-6.52,65.02,0.59,0.0,66.08,-0.04,-38.04
1411,0.027,0.77,9.72,-6.59,65.45,1.13,0.0,66.52,-0.06,-38.16
1412,0.027999999,0.8,9.6,-6.69,65.69,0.98,0.0,67.05,0.01,-38.25
1413,0.027,0.8,9.53,-6.81,66.15,1.01,0.0,67.67,0.2,-38.28
1414,0.025999999,0.68,9.66,-6.97,67.26,1.69,0.0,68.27,0.31,-38.21
1415,0.027999999,0.66,9.64,-7.06,67.66,1.81,0.0,68.79,0.34,-38.16
1416,0.027,0.74,9.75,-7.2,68.67,1.32,0.0,69.3,0.34,-38.21
1417,0.027,0.9,9.89,-7.1,68.51,0.42,0.0,69.66,0.27,-38.24
1418,0.027,0.82,9.81,-7.08,68.17,0.86,0.0,70.04,0.05,-38.24
1419,0.025999999,0.87,9.93,-7.29,69.53,0.59,0.0,70.57,-0.14,-38.25
1420,0.027999999,0.78,9.99,-7.41,70.3,1.06,0.0,71.12,-0.14,-38.25
1421,0.027999999,0.76,9.79,-7.65,71.22,1.25,0.0,71.76,-0.27,-38.28
1422,0.025999999,0.79,9.95,-7.63,71.38,1.02,0.0,72.34,-0.35,-38.25
1423,0.027999999,0.91,10.07,-7.64,71.66,0.34,0.0,73.03,-0.45,-38.14
1424,0.027999999,0.85,9.97,-7.87,72.73,0.68,0.0,73.95,-0.53,-38.01
1425,0.027,0.78,9.98,-8.01,73.5,1.08,0.0,74.8,-0.6,-37.96
1426,0.027,0.86,10.03,-8.28,75.08,0.67,0.0,75.56,-0.6,-37.97
1427,0.027999999,0.91,10.0,-8.34,75.39,0.37,0.0,76.2,-0.64,-37.95
1428,0.027,0.86,10.12,-8.35,75.58,0.65,0.0,76.69,-0.77,-37.89
1429,0.027999999,0.84,10.07,-8.49,76.26,0.76,0.0,77.2,-0.87,-37.87
1430,0.027,0.97,10.11,-8.62,77.08,0.01,0.0,77.82,-0.98,-37.85
1431,0.027999999,0.85,10.0,-8.77,77.79,0.7,0.0,78.36,-0.88,-37.83
1432,0.027999999,0.94,10.22,-8.78,78.14,0.16,0.0,78.79,-0.78,-37.74
1433,0.027,0.97,10.18,-8.9,78.74,0.04,0.0,79.09,-0.78,-37.68
1434,0.027999999,0.99,10.28,-8.88,78.75,-0.09,0.0,79.38,-0.72,-37.67
1435,0.027999999,0.98,10.1,-9.03,79.41,-0.03,0.0,79.69,-0.6,-37.7
1436,0.027,0.99,10.12,-9.09,79.74,-0.08,0.0,80.09,-0.58,-37.71
1437,0.027999999,0.93,10.14,-9.13,79.98,0.25,0.0,80.51,-0.55,-37.72
1438,0.027999999,0.93,10.24,-9.17,80.33,0.23,0.0,80.91,-0.54,-37.65
1439,0.027,1.05,10.18,-9.19,80.35,-0.43,0.0,81.33,-0.61,-37.54
1440,0.027999999,0.94,10.21,-9.22,80.58,0.18,0.0,81.75,-0.71,-37.44
1441,0.027999999,1.0,10.17,-9.36,81.35,-0.15,0.0,82.05,-0.75,-37.4
1442,0.027,0.97,9.95,-9.66,82.94,0.04,0.0,82.32,-0.74,-37.43
1443,0.027999999,1.0,10.17,-9.55,82.42,-0.18,0.0,82.55,-0.71,-37.44
1444,0.027999999,0.97,10.2,-9.57,82.55,0.0,0.0,82.82,-0.74,-37.39
1445,0.027,1.0,10.29,-9.57,82.64,-0.15,0.0,83.05,-0.84,-37.37
1446,0.027999999,1.0,10.24,-9.32,81.21,-0.16,0.0,83.28,-0.83,-37.33
1447,0.027999999,0.99,10.26,-9.7,83.34,-0.07,0.0,83.54,-0.82,-37.26
1448,0.027,0.93,10.13,-9.88,84.31,0.28,0.0,83.8,-0.84,-37.23
1449,0.027999999,0.99,10.2,-9.82,83.98,-0.12,0.0,84.05,-0.87,-37.23
1450,0.027,1.1,10.18,-9.81,83.88,-0.75,0.0,84.27,-0.86,-37.23
1451,0.028999997,1.12,10.23,-9.89,84.36,-0.86,0.0,84.47,-0.85,-37.22
1452,0.027999999,1.08,10.28,-9.8,83.92,-0.61,0.0,84.63,-0.9,-37.22
1453,0.027,1.06,10.23,-9.72,83.44,-0.51,0.0,84.78,-0.94,-37.21
1454,0.027999999,1.05,10.0,-9.89,84.27,-0.42,0.0,84.94,-0.93,-37.23
1455,0.027999999,0.96,10.02,-10.02,85.07,0.06,0.0,85.08,-0.81,-37.25
1456,0.027,1.14,10.18,-10.03,85.13,-0.99,0.0,85.13,-0.83,-37.25
1457,0.028999997,1.06,10.15,-9.94,84.67,-0.49,0.0,85.08,-0.91,-37.2
1458,0.027999999,1.2,10.22,-9.85,84.04,-1.3,0.0,85.03,-1.05,-37.13
1459,0.027,1.11,10.21,-9.89,84.34,-0.82,0.0,84.98,-0.98,-37.12
1460,0.027999999,1.19,10.33,-9.8,83.84,-1.22,0.0,84.85,-0.95,-37.14
1461,0.028999997,1.11,10.22,-9.93,84.57,-0.82,0.0,84.74,-1.09,-37.18
1462,0.027,1.05,10.08,-10.12,85.66,-0.45,0.0,84.6,-1.11,-37.28
1463,0.027999999,1.02,10.06,-10.07,85.39,-0.28,0.0,84.44,-1.03,-37.32
1464,0.028999997,0.99,10.16,-9.81,83.92,-0.1,0.0,84.1,-0.85,-37.33
1465,0.027,0.94,10.33,-9.8,83.95,0.19,0.0,83.64,-0.65,-37.35
1466,0.027999999,1.12,10.33,-9.68,83.25,-0.82,0.0,83.07,-0.54,-37.37
1467,0.027999999,1.08,10.23,-9.64,82.97,-0.63,0.0,82.44,-0.51,-37.37
1468,0.027,1.02,10.09,-9.5,82.08,-0.27,0.0,81.61,-0.4,-37.38
1469,0.027999999,1.04,10.01,-9.4,81.42,-0.41,0.0,80.69,-0.08,-37.37
1470,0.027999999,0.99,10.12,-9.12,79.94,-0.11,0.0,79.76,0.26,-37.34
1471,0.027,1.12,10.34,-8.76,78.12,-0.85,0.0,78.89,0.33,-37.43
1472,0.027999999,0.93,10.0,-8.87,78.35,0.27,0.0,77.87,0.44,-37.61
1473,0.027,0.97,10.05,-8.7,77.44,0.01,0.0,76.86,0.6,-37.71
1474,0.027,0.97,10.23,-8.4,76.02,0.03,0.0,75.62,0.77,-37.76
1475,0.027999999,1.02,10.28,-7.9,73.38,-0.25,0.0,74.49,0.78,-37.9
1476,0.027,0.98,10.1,-8.05,73.92,-0.04,0.0,73.43,0.79,-38.02
1477,0.027999999,1.02,9.89,-8.07,73.68,-0.26,0.0,72.25,1.06,-38.09
1478,0.027999999,1.01,9.87,-7.77,72.02,-0.22,0.0,70.73,1.35,-38.02
1479,0.025999999,0.99,9.79,-7.6,70.93,-0.07,0.0,69.2,1.45,-37.96
1480,0.027999999,0.96,9.62,-6.96,67.17,0.05,0.0,67.27,1.68,-37.92
1481,0.027,0.94,9.66,-6.58,65.32,0.2,0.0,65.66,1.8,-37.99
1482,0.027,0.9,9.47,-6.5,64.45,0.39,0.0,64.08,1.9,-38.14
1483,0.027,0.87,9.48,-6.18,62.85,0.6,0.0,62.77,2.0,-38.4
1484,0.027,0.8,9.41,-6.06,62.08,0.95,0.0,61.7,1.99,-38.67
1485,0.027,0.77,9.33,-5.93,61.19,1.11,0.0,60.76,1.92,-38.95
1486,0.027,0.79,9.38,-5.75,60.43,1.02,0.0,59.93,2.14,-39.11
1487,0.027,0.61,9.38,-5.54,59.41,1.98,0.0,59.15,2.37,-39.33
1488,0.027,0.96,9.29,-5.49,58.99,0.09,0.0,58.22,2.43,-39.42
1489,0.027999999,0.67,9.26,-5.42,58.55,1.66,0.0,57.08,2.43,-39.64
1490,0.025999999,0.62,9.09,-5.34,57.66,1.95,0.0,55.94,2.53,-39.75
1491,0.027,0.51,8.9,-4.86,54.81,2.52,0.0,54.82,2.63,-39.86
1492,0.027999999,0.66,8.78,-4.97,54.98,1.78,0.0,54.08,2.69,-40.04
1493,0.025999999,0.49,8.69,-4.77,53.76,2.71,0.0,53.21,3.01,-40.01
1494,0.027999999,0.45,8.72,-4.53,52.78,2.84,0.0,52.27,3.14,-40.02
1495,0.025999999,0.56,8.45,-4.48,51.67,2.29,0.0,51.51,2.88,-40.07
1496,0.027,0.48,8.38,-4.44,51.25,2.76,0.0,50.81,2.88,-40.19
1497,0.027999999,0.48,8.29,-4.52,51.26,2.78,0.0,49.83,2.99,-40.26
1498,0.025999999,0.43,8.24,-4.09,49.23,2.98,0.0,48.88,3.01,-40.44
1499,0.027999999,0.48,8.2,-3.81,47.97,2.71,0.0,48.22,3.09,-40.56
1500,0.027,0.27,8.42,-3.54,47.64,3.68,0.0,47.84,3.12,-40.66
1501,0.025999999,0.34,8.34,-3.47,47.07,3.35,0.0,47.23,2.93,-40.69
1502,0.027999999,0.55,7.99,-3.68,46.65,2.33,0.0,46.69,2.69,-40.58
1503,0.027,0.49,7.98,-3.65,46.52,2.65,0.0,45.99,2.54,-40.43
1504,0.027,0.49,7.89,-3.54,45.76,2.65,0.0,45.02,2.49,-40.3
1505,0.027,0.55,7.74,-3.22,43.96,2.29,0.0,44.03,2.23,-40.29
1506,0.027,0.58,7.65,-3.22,43.62,2.14,0.0,42.93,1.89,-40.25
1507,0.027,0.62,7.45,-2.93,41.75,1.9,0.0,41.8,1.73,-40.2
1508,0.027,0.59,7.34,-3.07,41.83,2.11,0.0,40.88,1.64,-40.14
1509,0.027,0.7,7.2,-2.89,40.61,1.5,0.0,40.3,1.65,-39.97
1510,0.027,0.63,7.21,-2.88,40.61,1.87,0.0,39.44,1.64,-39.69
1511,0.027999999,0.72,7.05,-2.67,39.21,1.38,0.0,38.35,1.56,-39.4
1512,0.025999999,0.77,7.02,-2.4,38.18,1.11,0.0,37.27,1.35,-39.17
1513,0.027,0.84,6.83,-2.44,37.51,0.71,0.0,36.07,1.16,-38.86
1514,0.027,0.93,6.68,-2.17,36.0,0.24,0.0,34.94,0.94,-38.54
1515,0.027,0.95,6.62,-1.93,35.0,0.13,0.0,33.6,0.78,-38.28
1516,0.027999999,1.02,6.34,-1.92,33.73,-0.27,0.0,32.21,0.64,-38.07
1517,0.025999999,1.05,6.15,-1.82,32.63,-0.43,0.0,31.22,0.48,-37.97
1518,0.027999999,1.02,6.11,-1.54,31.62,-0.26,0.0,30.25,0.43,-37.85
1519,0.027999999,1.06,5.83,-1.53,30.33,-0.46,0.0,29.04,0.29,-37.72
1520,0.025999999,1.16,5.66,-1.46,29.41,-1.0,0.0,27.92,0.08,-37.61
1521,0.027999999,1.12,5.39,-1.33,27.8,-0.76,0.0,26.7,-0.1,-37.42
1522,0.027999999,1.22,5.18,-1.39,26.91,-1.36,0.0,25.62,-0.19,-37.18
1523,0.027,1.23,5.05,-1.22,25.92,-1.4,0.0,24.65,-0.31,-37.02
1524,0.027999999,1.24,4.98,-1.12,25.32,-1.41,0.0,23.61,-0.54,-37.0
1525,0.027999999,1.31,4.82,-1.05,24.39,-1.77,0.0,22.7,-0.68,-36.93
1526,0.025999999,1.24,4.69,-0.8,23.23,-1.38,0.0,21.74,-0.85,-36.82
1527,0.027999999,1.28,4.44,-0.9,22.19,-1.62,0.0,20.83,-1.13,-36.91
1528,0.027,1.45,4.3,-0.79,21.31,-2.52,0.0,19.96,-1.26,-36.9
1529,0.027999999,1.36,4.16,-0.62,20.28,-2.02,0.0,18.9,-1.44,-36.91
1530,0.027999999,1.36,4.04,-0.63,19.7,-2.02,0.0,18.01,-1.65,-36.96
1531,0.027,1.51,3.81,-0.5,18.34,-2.83,0.0,17.26,-1.73,-36.98
1532,0.027999999,1.38,3.76,-0.48,18.07,-2.11,0.0,16.43,-1.7,-36.97
1533,0.027999999,1.4,3.63,-0.29,17.12,-2.19,0.0,15.66,-1.73,-37.06
1534,0.027,1.47,3.43,-0.27,16.11,-2.57,0.0,15.04,-1.74,-37.09
1535,0.027999999,1.44,3.34,-0.28,15.67,-2.42,0.0,14.26,-1.72,-37.07
1536,0.027999999,1.4,3.22,-0.4,15.25,-2.24,0.0,13.51,-1.82,-37.14
1537,0.027,1.43,3.0,-0.14,13.8,-2.36,0.0,12.7,-1.94,-37.24
1538,0.027,1.4,2.96,-0.39,13.9,-2.27,0.0,12.04,-1.96,-37.31
1539,0.027999999,1.41,2.75,-0.14,12.51,-2.27,0.0,11.31,-1.93,-37.33
1540,0.027,1.34,2.67,-0.18,12.15,-1.94,0.0,10.72,-1.95,-37.33
1541,0.027999999,1.42,2.61,-0.29,11.97,-2.36,0.0,10.17,-2.0,-37.33
1542,0.027999999,1.44,2.37,-0.09,10.48,-2.47,0.0,9.64,-2.0,-37.26
1543,0.027,1.39,2.35,-0.05,10.38,-2.16,0.0,8.91,-2.01,-37.33
1544,0.027,1.34,2.27,-0.16,10.08,-1.94,0.0,8.3,-2.04,-37.32
1545,0.027,1.35,2.06,-0.02,8.85,-1.95,0.0,7.75,-2.03,-37.36
1546,0.027,1.34,2.1,-0.05,9.07,-1.92,0.0,7.24,-1.97,-37.47
1547,0.027999999,1.46,1.92,0.05,8.06,-2.54,0.0,6.7,-1.87,-37.45
1548,0.025999999,1.37,1.81,-0.11,7.59,-2.1,0.0,6.15,-1.84,-37.41
1549,0.027,1.34,1.77,-0.14,7.45,-1.97,0.0,5.76,-1.88,-37.41
1550,0.027,1.41,1.64,0.08,6.61,-2.29,0.0,5.35,-1.9,-37.39
1551,0.025999999,1.34,1.6,-0.05,6.51,-1.93,0.0,4.95,-1.82,-37.32
1552,0.027,1.33,1.45,0.11,5.62,-1.88,0.0,4.44,-1.71,-37.29
1553,0.025999999,1.35,1.41,0.06,5.44,-1.95,0.0,3.97,-1.69,-37.35
1554,0.027,1.35,1.32,0.26,4.9,-1.95,0.0,3.3,-1.57,-37.45
1555,0.027,1.33,1.21,0.1,4.38,-1.88,0.0,2.52,-1.47,-37.48
1556,0.025999999,1.26,1.12,0.11,3.88,-1.48,0.0,1.92,-1.38,-37.49
1557,0.027,1.31,1.04,0.09,3.46,-1.74,0.0,1.54,-1.32,-37.49
1558,0.027,1.27,0.94,0.16,2.93,-1.54,0.0,1.51,-1.27,-37.46
1559,0.025,1.2,0.75,0.19,1.94,-1.18,0.0,1.44,-1.15,-37.41
1560,0.027,1.18,0.81,0.15,2.27,-1.08,0.0,1.14,-0.98,-37.62
1561,0.025999999,1.15,0.82,0.07,2.37,-0.93,0.0,1.05,-0.84,-37.82
1562,0.027,1.17,0.8,0.02,2.24,-1.02,0.0,1.05,-0.71,-37.88
1563,0.027,1.11,0.88,-0.04,2.67,-0.72,0.0,1.1,-0.64,-37.97
1564,0.025999999,1.1,0.76,0.09,2.03,-0.66,0.0,1.16,-0.56,-38.02
1565,0.027,1.13,0.66,0.13,1.5,-0.84,0.0,1.15,-0.57,-37.97
1566,0.027,1.12,0.8,0.2,2.22,-0.74,0.0,1.3,-0.59,-37.98
1567,0.025999999,1.07,0.79,0.03,2.22,-0.49,0.0,1.48,-0.63,-38.05
1568,0.027,1.14,0.82,0.01,2.36,-0.88,0.0,1.68,-0.59,-38.04
1569,0.025999999,1.08,0.86,0.21,2.51,-0.54,0.0,1.95,-0.52,-38.01
1570,0.027,1.05,0.96,0.05,3.08,-0.4,0.0,2.15,-0.5,-38.11
1571,0.025999999,1.03,0.82,0.14,2.35,-0.3,0.0,2.27,-0.52,-38.29
1572,0.025999999,1.09,0.93,0.07,2.91,-0.61,0.0,2.28,-0.51,-38.38
1573,0.027,1.13,1.01,0.11,3.34,-0.82,0.0,2.18,-0.52,-38.37
1574,0.027,1.08,0.84,-0.07,2.5,-0.56,0.0,2.09,-0.53,-38.39
1575,0.025999999,1.13,0.84,0.12,2.44,-0.81,0.0,1.98,-0.64,-38.49
1576,0.027,1.24,0.89,0.09,2.69,-1.38,0.0,1.95,-0.79,-38.52
1577,0.025999999,1.15,0.76,0.15,2.03,-0.91,0.0,1.85,-0.9,-38.56
1578,0.027,1.14,0.75,0.09,1.99,-0.85,0.0,1.62,-0.98,-38.55
1579,0.027,1.23,0.82,0.1,2.36,-1.36,0.0,1.52,-1.05,-38.58
1580,0.025999999,1.2,0.79,0.15,2.15,-1.17,0.0,1.54,-1.06,-38.61
1581,0.027,1.23,0.78,0.14,2.13,-1.35,0.0,1.53,-1.0,-38.5
1582,0.025999999,1.18,0.72,0.22,1.82,-1.05,0.0,1.45,-0.99,-38.45
1583,0.025999999,1.02,0.76,0.21,2.03,-0.22,0.0,1.35,-0.93,-38.51
1584,0.027,1.23,0.74,0.24,1.89,-1.33,0.0,1.25,-1.02,-38.58
1585,0.025999999,1.13,0.74,0.23,1.89,-0.82,0.0,1.15,-1.1,-38.65
1586,0.027,1.24,0.61,0.14,1.26,-1.41,0.0,1.05,-1.13,-38.65
1587,0.027,1.16,0.65,0.12,1.46,-0.95,0.0,0.98,-1.15,-38.65
1588,0.025999999,1.13,0.65,0.1,1.45,-0.84,0.0,0.98,-1.21,-38.7
1589,0.027,1.18,0.69,-0.02,1.66,-1.1,0.0,0.9,-1.3,-38.71
1590,0.025999999,1.19,0.61,0.12,1.26,-1.15,0.0,0.78,-1.45,-38.59
1591,0.027,1.24,0.55,0.26,0.9,-1.39,0.0,0.61,-1.69,-38.53
1592,0.027,1.31,0.57,-0.02,1.02,-1.77,0.0,0.28,-1.98,-38.47
1593,0.025999999,1.35,0.52,0.17,0.76,-1.95,0.0,-0.07,-2.38,-38.33
1594,0.027,1.39,0.43,0.25,0.3,-2.14,0.0,-0.41,-2.81,-38.19
1595,0.027,1.44,0.26,0.21,-0.59,-2.39,0.0,-0.54,-3.22,-38.28
1596,0.027,1.55,0.4,0.07,0.14,-3.01,0.0,-0.7,-3.68,-38.3
1597,0.027,1.75,0.37,0.04,-0.01,-4.06,0.0,-0.77,-4.23,-38.21
1598,0.025999999,1.62,0.42,0.0,0.24,-3.41,0.0,-0.92,-4.68,-38.03
1599,0.027,2.0,0.28,0.25,-0.49,-5.27,0.0,-1.0,-5.24,-38.01
1600,0.027999999,2.04,0.28,0.12,-0.5,-5.57,0.0,-0.9,-5.65,-38.16
1601,0.025999999,1.99,0.37,0.09,0.0,-5.31,0.0,-0.74,-6.09,-38.37
1602,0.027999999,2.13,0.41,-0.04,0.2,-6.09,0.0,-0.63,-6.61,-38.43
1603,0.027,2.18,0.31,0.1,-0.35,-6.28,0.0,-0.7,-7.05,-38.32
1604,0.025999999,2.3,0.3,0.01,-0.36,-6.94,0.0,-0.84,-7.57,-38.27
1605,0.027999999,2.26,0.35,0.06,-0.11,-6.7,0.0,-0.85,-8.03,-38.29
1606,0.027999999,2.32,0.35,0.04,-0.14,-7.06,0.0,-0.89,-8.41,-38.32
1607,0.025999999,2.41,0.35,0.05,-0.11,-7.5,0.0,-0.92,-8.91,-38.39
1608,0.027999999,2.54,0.21,0.1,-0.82,-8.12,0.0,-1.09,-9.44,-38.31
1609,0.025999999,2.73,0.14,0.19,-1.2,-9.04,0.0,-1.2,-9.9,-38.19
1610,0.027999999,2.73,0.22,0.14,-0.76,-9.08,0.0,-1.35,-10.63,-38.24
1611,0.027999999,2.96,0.18,-0.03,-1.02,-10.43,0.0,-1.38,-11.43,-38.36
1612,0.027,3.14,0.23,-0.21,-0.74,-11.51,0.0,-1.32,-11.94,-38.29
1613,0.028999997,3.11,0.1,-0.09,-1.44,-11.22,0.0,-1.34,-12.38,-38.23
1614,0.027999999,3.25,0.14,-0.24,-1.24,-12.12,0.0,-1.34,-12.85,-38.31
1615,0.027999999,3.28,0.13,-0.18,-1.27,-12.2,0.0,-1.34,-13.41,-38.28
1616,0.027999999,3.36,0.15,-0.1,-1.13,-12.53,0.0,-1.5,-13.96,-38.18
1617,0.028999997,3.47,0.04,-0.08,-1.74,-13.06,0.0,-1.66,-14.43,-38.1
1618,0.027,3.57,0.04,-0.18,-1.72,-13.67,0.0,-1.77,-14.95,-38.06
1619,0.027999999,3.63,-0.07,-0.21,-2.31,-13.99,0.0,-1.95,-15.55,-38.03
1620,0.028999997,3.9,0.06,-0.32,-1.65,-15.53,0.0,-1.98,-16.14,-37.87
1621,0.027999999,3.85,0.06,-0.24,-1.62,-15.15,0.0,-1.92,-16.63,-37.67
1622,0.027999999,4.06,-0.06,-0.13,-2.2,-16.06,0.0,-1.94,-17.02,-37.64
1623,0.028999997,4.09,0.14,-0.37,-1.2,-16.54,0.0,-1.76,-17.42,-37.85
1624,0.027,3.96,0.19,-0.44,-0.95,-16.0,0.0,-1.64,-17.83,-37.97
1625,0.027999999,4.15,0.1,-0.34,-1.4,-16.83,0.0,-1.62,-18.39,-37.97
1626,0.028999997,4.24,0.01,-0.33,-1.9,-17.23,0.0,-1.57,-18.86,-37.95
1627,0.027,4.36,0.0,-0.35,-1.91,-17.89,0.0,-1.53,-19.38,-37.99
1628,0.028999997,4.45,0.1,-0.51,-1.42,-18.6,0.0,-1.52,-19.96,-37.98
1629,0.027999999,4.58,0.04,-0.49,-1.72,-19.2,0.0,-1.46,-20.52,-37.95
1630,0.027999999,4.68,0.0,-0.49,-1.92,-19.68,0.0,-1.45,-21.04,-37.85
1631,0.027999999,4.74,0.07,-0.54,-1.59,-20.05,0.0,-1.44,-21.55,-37.73
1632,0.027999999,4.8,0.18,-0.78,-1.04,-20.82,0.0,-1.34,-22.05,-37.64
1633,0.027999999,5.0,0.09,-0.69,-1.49,-21.59,0.0,-1.27,-22.51,-37.48
1634,0.027999999,5.08,0.05,-0.54,-1.67,-21.73,0.0,-1.24,-22.94,-37.32
1635,0.028999997,5.13,0.01,-0.64,-1.88,-22.15,0.0,-1.36,-23.56,-37.2
1636,0.027,5.23,0.0,-0.63,-1.92,-22.61,0.0,-1.4,-24.09,-37.04
1637,0.028999997,5.34,0.0,-0.74,-1.93,-23.33,0.0,-1.41,-24.74,-36.93
1638,0.027999999,5.38,-0.01,-0.83,-1.99,-23.71,0.0,-1.43,-25.26,-36.83
1639,0.027999999,5.49,0.09,-0.89,-1.5,-24.37,0.0,-1.44,-25.77,-36.64
1640,0.027999999,5.44,0.01,-0.85,-1.9,-24.06,0.0,-1.5,-26.18,-36.59
1641,0.027999999,5.63,0.05,-0.91,-1.66,-25.11,0.0,-1.58,-26.62,-36.58
1642,0.027999999,5.68,-0.11,-0.95,-2.51,-25.41,0.0,-1.69,-27.15,-36.59
1643,0.028999997,5.9,-0.08,-1.05,-2.35,-26.66,0.0,-1.75,-27.85,-36.57
1644,0.027999999,5.99,-0.14,-1.12,-2.68,-27.22,0.0,-1.82,-28.55,-36.43
1645,0.027999999,6.01,-0.12,-1.15,-2.58,-27.42,0.0,-1.9,-29.23,-36.22
1646,0.028999997,6.18,-0.01,-1.33,-2.03,-28.65,0.0,-1.9,-29.78,-36.01
1647,0.027,6.23,-0.11,-1.35,-2.55,-28.95,0.0,-1.96,-30.16,-35.88
1648,0.028999997,6.2,-0.14,-1.21,-2.7,-28.42,0.0,-1.98,-30.51,-35.66
1649,0.028999997,6.36,-0.18,-1.32,-2.9,-29.44,0.0,-2.04,-30.98,-35.48
1650,0.027,6.45,-0.17,-1.47,-2.85,-30.2,0.0,-2.05,-31.4,-35.39
1651,0.028999997,6.51,-0.2,-1.37,-3.01,-30.23,0.0,-2.0,-31.73,-35.23
1652,0.028999997,6.34,-0.15,-1.47,-2.79,-29.74,0.0,-2.0,-32.13,-35.05
1653,0.027,6.55,-0.12,-1.63,-2.6,-31.12,0.0,-2.03,-32.59,-34.91
1654,0.028999997,6.56,-0.32,-1.58,-3.64,-31.01,0.0,-2.16,-33.15,-34.67
1655,0.028999997,6.84,-0.34,-1.75,-3.77,-32.73,0.0,-2.31,-33.85,-34.51
1656,0.027,6.95,-0.48,-1.66,-4.43,-32.92,0.0,-2.5,-34.49,-34.37
1657,0.028999997,7.03,-0.46,-1.76,-4.38,-33.54,0.0,-2.6,-35.04,-34.17
1658,0.028999997,6.98,-0.26,-1.88,-3.35,-33.74,0.0,-2.53,-35.5,-33.96
1659,0.027,7.1,-0.32,-1.99,-3.66,-34.57,0.0,-2.51,-35.89,-33.8
1660,0.028999997,7.2,-0.3,-2.01,-3.57,-35.07,0.0,-2.49,-36.38,-33.54
1661,0.028999997,7.19,-0.36,-1.88,-3.84,-34.64,0.0,-2.53,-36.92,-33.34
1662,0.027,7.35,-0.52,-2.01,-4.69,-35.66,0.0,-2.66,-37.47,-33.21
1663,0.028999997,7.41,-0.5,-2.16,-4.62,-36.39,0.0,-2.72,-38.0,-33.07
1664,0.028999997,7.36,-0.45,-2.2,-4.38,-36.32,0.0,-2.78,-38.48,-32.93
1665,0.027,7.43,-0.42,-2.38,-4.26,-37.21,0.0,-2.85,-38.92,-32.84
1666,0.028999997,7.47,-0.47,-2.31,-4.49,-37.12,0.0,-2.91,-39.25,-32.67
1667,0.028999997,7.52,-0.51,-2.43,-4.73,-37.72,0.0,-2.89,-39.42,-32.51
1668,0.027,7.58,-0.44,-2.41,-4.34,-37.9,0.0,-2.93,-39.59,-32.45
1669,0.028999997,7.57,-0.35,-2.3,-3.8,-37.53,0.0,-3.08,-39.92,-32.3
1670,0.028999997,7.84,-0.54,-2.5,-4.81,-39.27,0.0,-3.26,-40.36,-32.15
1671,0.027,7.82,-0.64,-2.43,-5.34,-38.93,0.0,-3.41,-40.78,-32.06
1672,0.028999997,8.06,-0.77,-2.5,-5.95,-40.07,0.0,-3.56,-41.31,-31.87
1673,0.028999997,8.0,-0.7,-2.64,-5.66,-40.3,0.0,-3.63,-41.7,-31.63
1674,0.027999999,7.98,-0.65,-2.7,-5.44,-40.46,0.0,-3.64,-42.09,-31.26
1675,0.027999999,7.98,-0.58,-2.66,-5.07,-40.34,0.0,-3.72,-42.57,-30.97
1676,0.028999997,8.17,-0.73,-3.08,-5.95,-42.51,0.0,-4.04,-43.25,-30.72
1677,0.027999999,8.28,-0.92,-2.9,-6.84,-42.18,0.0,-4.27,-43.73,-30.49
1678,0.027999999,8.23,-0.86,-3.08,-6.6,-42.7,0.0,-4.42,-44.22,-30.36
1679,0.028999997,8.31,-0.9,-3.12,-6.8,-43.12,0.0,-4.66,-44.69,-30.25
1680,0.027999999,8.23,-0.77,-3.16,-6.15,-43.02,0.0,-4.89,-45.01,-30.13
1681,0.027999999,8.39,-0.87,-3.24,-6.69,-43.87,0.0,-5.08,-45.24,-30.07
1682,0.028999997,8.29,-0.86,-3.02,-6.57,-42.7,0.0,-5.22,-45.53,-29.94
1683,0.027999999,8.42,-0.96,-3.25,-7.13,-43.98,0.0,-5.3,-45.84,-29.8
1684,0.027999999,8.47,-0.94,-3.25,-7.0,-44.16,0.0,-5.52,-46.14,-29.7
1685,0.028999997,8.48,-1.11,-3.33,-7.94,-44.38,0.0,-5.78,-46.59,-29.67
1686,0.027999999,8.57,-1.06,-3.44,-7.68,-45.17,0.0,-5.97,-46.98,-29.58
1687,0.027999999,8.63,-1.1,-3.46,-7.86,-45.48,0.0,-6.2,-47.36,-29.52
1688,0.028999997,8.68,-1.09,-3.5,-7.85,-45.79,0.0,-6.41,-47.83,-29.48
1689,0.027999999,8.79,-1.25,-3.68,-8.69,-46.75,0.0,-6.73,-48.36,-29.45
1690,0.027999999,8.8,-1.32,-3.77,-9.13,-47.08,0.0,-7.05,-48.88,-29.44
1691,0.028999997,8.88,-1.2,-4.14,-8.6,-48.9,0.0,-7.21,-49.24,-29.53
1692,0.027999999,8.78,-1.26,-3.93,-8.9,-47.66,0.0,-7.37,-49.42,-29.69
1693,0.027999999,8.99,-1.21,-3.93,-8.49,-48.46,0.0,-7.5,-49.67,-29.82
1694,0.028999997,8.84,-1.12,-4.06,-8.19,-48.54,0.0,-7.4,-49.78,-29.74
1695,0.027999999,8.94,-1.17,-3.98,-8.35,-48.54,0.0,-7.51,-49.98,-29.81
1696,0.027999999,8.91,-1.23,-3.96,-8.67,-48.29,0.0,-7.79,-50.3,-29.79
1697,0.028999997,9.15,-1.35,-4.08,-9.22,-49.51,0.0,-8.0,-50.66,-29.71
1698,0.027999999,9.17,-1.41,-4.14,-9.58,-49.75,0.0,-8.01,-50.81,-29.75
1699,0.027999999,9.07,-1.28,-4.14,-8.92,-49.54,0.0,-8.03,-50.94,-29.77
1700,0.028999997,9.24,-1.18,-4.35,-8.38,-51.03,0.0,-8.11,-51.38,-29.86
1701,0.027999999,9.13,-1.21,-4.23,-8.56,-50.13,0.0,-8.1,-51.73,-29.79
1702,0.027999999,9.1,-1.26,-4.17,-8.83,-49.75,0.0,-8.03,-52.12,-29.72
1703,0.028999997,9.26,-1.33,-4.54,-9.29,-51.72,0.0,-8.01,-52.61,-29.7
1704,0.027999999,9.25,-1.31,-4.49,-9.16,-51.51,0.0,-7.76,-52.84,-29.6
1705,0.027999999,9.23,-1.28,-4.49,-8.99,-51.46,0.0,-7.5,-53.07,-29.39
1706,0.028999997,9.25,-1.26,-4.42,-8.86,-51.27,0.0,-7.42,-53.39,-29.22
1707,0.027999999,9.19,-1.21,-4.52,-8.69,-51.56,0.0,-7.36,-53.72,-29.07
1708,0.028999997,9.37,-1.29,-4.68,-9.04,-52.7,0.0,-7.38,-54.06,-28.95
1709,0.027999999,9.48,-1.43,-4.73,-9.74,-53.13,0.0,-7.46,-54.37,-28.88
1710,0.027999999,9.4,-1.29,-4.74,-9.09,-53.05,0.0,-7.37,-54.62,-28.85
1711,0.028999997,9.51,-1.39,-4.82,-9.56,-53.66,0.0,-7.46,-54.85,-28.7
1712,0.027999999,9.48,-1.38,-4.85,-9.56,-53.7,0.0,-7.47,-55.04,-28.51
1713,0.027999999,9.52,-1.42,-4.8,-9.71,-53.56,0.0,-7.37,-55.23,-28.39
1714,0.028999997,9.55,-1.41,-5.03,-9.73,-54.61,0.0,-7.37,-55.47,-28.24
1715,0.027999999,9.58,-1.4,-5.05,-9.68,-54.8,0.0,-7.37,-55.61,-28.16
1716,0.027999999,9.47,-1.29,-4.94,-9.11,-54.15,0.0,-7.33,-55.6,-28.14
1717,0.028999997,9.43,-1.36,-4.87,-9.48,-53.63,0.0,-7.32,-55.51,-28.04
1718,0.027999999,9.51,-1.35,-5.08,-9.46,-54.8,0.0,-7.13,-55.36,-27.93
1719,0.027999999,9.44,-1.27,-4.9,-9.02,-53.9,0.0,-7.08,-55.09,-27.99
1720,0.028999997,9.37,-1.24,-4.62,-8.79,-52.53,0.0,-7.11,-54.56,-28.16
1721,0.027999999,9.49,-1.4,-4.86,-9.66,-53.73,0.0,-7.24,-53.91,-28.2
1722,0.027999999,9.53,-1.58,-4.53,-10.43,-52.26,0.0,-7.59,-53.03,-28.33
1723,0.028999997,9.32,-1.42,-4.63,-9.78,-52.18,0.0,-8.12,-52.25,-28.47
1724,0.028999997,9.12,-1.4,-4.43,-9.68,-50.72,0.0,-8.65,-51.36,-28.12
1725,0.027,9.03,-1.16,-4.3,-8.38,-50.14,0.0,-9.24,-50.39,-27.8
1726,0.028999997,9.06,-1.69,-4.04,-11.03,-48.67,0.0,-9.63,-49.47,-27.68
1727,0.028999997,9.11,-1.74,-4.1,-11.32,-49.01,0.0,-10.03,-48.81,-27.59
1728,0.027999999,9.02,-1.8,-3.91,-11.58,-47.88,0.0,-10.2,-48.34,-27.56
1729,0.028999997,9.03,-1.8,-3.85,-11.48,-47.71,0.0,-10.24,-47.88,-27.53
1730,0.028999997,8.87,-1.72,-3.91,-11.27,-47.42,0.0,-10.17,-47.48,-27.46
1731,0.028999997,8.9,-1.71,-3.9,-11.19,-47.53,0.0,-9.77,-47.1,-27.33
1732,0.028999997,8.73,-1.71,-3.59,-11.11,-45.74,0.0,-9.5,-46.69,-27.21
1733,0.027999999,8.65,-1.6,-3.63,-10.59,-45.71,0.0,-9.54,-46.18,-27.2
1734,0.027999999,8.6,-1.69,-3.56,-11.06,-45.21,0.0,-9.4,-45.63,-27.26
1735,0.028999997,8.51,-1.59,-3.53,-10.57,-44.85,0.0,-9.01,-45.05,-27.45
1736,0.028999997,8.62,-1.53,-3.54,-10.2,-45.34,0.0,-8.57,-44.51,-27.57
1737,0.027999999,8.4,-1.58,-3.25,-10.44,-43.42,0.0,-8.27,-43.89,-27.65
1738,0.028999997,8.39,-1.48,-3.3,-9.94,-43.67,0.0,-8.06,-43.14,-27.79
1739,0.028999997,8.33,-1.49,-3.19,-9.94,-43.01,0.0,-7.87,-42.34,-27.97
1740,0.027,8.23,-1.27,-2.95,-8.69,-41.97,0.0,-7.77,-41.6,-28.2
1741,0.028999997,8.07,-1.27,-2.98,-8.8,-41.46,0.0,-7.82,-40.94,-28.36
1742,0.028999997,7.98,-1.21,-2.87,-8.5,-40.73,0.0,-7.86,-40.39,-28.36
1743,0.027,8.1,-1.26,-2.92,-8.68,-41.35,0.0,-7.99,-39.98,-28.37
1744,0.028999997,7.95,-1.42,-2.71,-9.51,-39.93,0.0,-8.22,-39.42,-28.37
1745,0.028999997,7.74,-1.23,-2.5,-8.46,-38.54,0.0,-8.48,-38.94,-28.46
1746,0.027,7.95,-1.39,-2.58,-9.26,-39.53,0.0,-8.9,-38.71,-28.67
1747,0.028999997,7.84,-1.38,-2.6,-9.29,-39.11,0.0,-9.19,-38.08,-28.96
1748,0.028999997,7.65,-1.31,-2.53,-8.95,-38.21,0.0,-9.68,-37.33,-29.24
1749,0.027999999,7.64,-1.52,-2.5,-10.04,-37.92,0.0,-10.22,-36.66,-29.53
1750,0.028999997,7.54,-1.52,-2.36,-10.0,-37.06,0.0,-10.52,-36.14,-29.83
1751,0.028999997,7.43,-1.36,-2.47,-9.28,-37.03,0.0,-10.68,-35.35,-29.83
1752,0.027999999,7.25,-1.57,-2.12,-10.22,-35.06,0.0,-11.01,-34.49,-29.85
1753,0.028999997,7.25,-1.6,-2.16,-10.44,-35.15,0.0,-11.31,-33.43,-29.88
1754,0.028999997,7.12,-1.68,-1.85,-10.67,-33.68,0.0,-11.47,-32.5,-30.12
1755,0.027999999,7.03,-1.54,-1.97,-10.1,-33.67,0.0,-11.67,-31.91,-30.5
1756,0.029999997,6.63,-1.49,-1.87,-9.94,-31.68,0.0,-11.96,-31.02,-30.83
1757,0.027999999,6.83,-1.35,-2.04,-9.27,-33.13,0.0,-12.43,-30.24,-31.06
1758,0.027999999,6.62,-1.71,-1.57,-10.87,-30.71,0.0,-12.83,-29.43,-31.28
1759,0.029999997,6.51,-1.74,-1.62,-11.12,-30.32,0.0,-13.02,-28.63,-31.58
1760,0.028999997,6.33,-1.72,-1.68,-11.17,-29.64,0.0,-13.14,-27.78,-31.7
1761,0.027999999,6.3,-1.55,-1.6,-10.19,-29.4,0.0,-13.24,-27.17,-31.79
1762,0.028999997,6.32,-1.9,-1.44,-11.87,-28.9,0.0,-13.31,-26.51,-31.97
1763,0.028999997,6.03,-1.8,-1.41,-11.47,-27.57,0.0,-13.32,-25.96,-32.03
1764,0.028999997,6.08,-1.88,-1.34,-11.77,-27.57,0.0,-13.35,-25.6,-32.17
1765,0.028999997,6.0,-1.81,-1.52,-11.62,-27.68,0.0,-13.28,-25.0,-32.12
1766,0.028999997,5.92,-1.76,-1.3,-11.21,-26.82,0.0,-13.27,-24.1,-32.07
1767,0.028999997,5.7,-1.77,-1.16,-11.23,-25.46,0.0,-13.19,-23.13,-32.03
1768,0.027999999,5.47,-1.71,-0.95,-10.86,-23.97,0.0,-12.99,-22.33,-32.06
1769,0.028999997,5.38,-1.94,-0.89,-11.99,-23.32,0.0,-12.82,-21.49,-32.27
1770,0.029999997,5.22,-1.86,-0.83,-11.62,-22.45,0.0,-12.61,-20.48,-32.51
1771,0.027999999,5.0,-1.86,-0.9,-11.76,-21.57,0.0,-12.37,-19.64,-32.77
1772,0.028999997,5.05,-1.51,-1.02,-10.02,-22.13,0.0,-12.03,-18.88,-32.85
1773,0.028999997,4.81,-1.57,-0.92,-10.34,-20.75,0.0,-11.62,-18.02,-32.76
1774,0.027999999,4.87,-1.61,-0.54,-10.19,-20.36,0.0,-11.05,-17.09,-32.82
1775,0.029999997,4.48,-1.52,-0.6,-9.9,-18.61,0.0,-10.51,-16.16,-32.87
1776,0.027999999,4.34,-1.13,-0.7,-8.01,-18.16,0.0,-9.8,-15.18,-32.74
1777,0.027999999,4.29,-1.22,-0.61,-8.43,-17.76,0.0,-8.82,-13.95,-32.58
1778,0.028999997,3.87,-1.07,-0.09,-7.4,-14.93,0.0,-7.93,-12.83,-32.52
1779,0.027999999,3.65,-0.83,-0.49,-6.43,-14.39,0.0,-6.95,-11.58,-32.47
1780,0.027999999,3.65,-0.9,-0.5,-6.76,-14.4,0.0,-5.82,-10.09,-32.39
1781,0.028999997,3.44,-0.93,0.29,-6.52,-12.4,0.0,-4.88,-8.84,-32.4
1782,0.027999999,3.05,-0.49,0.2,-4.41,-10.62,0.0,-3.99,-7.78,-32.52
1783,0.027,2.92,-0.35,0.05,-3.73,-10.09,0.0,-3.5,-7.17,-32.64
1784,0.027999999,2.64,-0.23,-0.08,-3.16,-8.8,0.0,-2.85,-6.69,-32.71
1785,0.027999999,2.72,-0.04,-0.2,-2.17,-9.29,0.0,-1.84,-6.14,-32.8
1786,0.025999999,2.33,-0.02,0.39,-1.96,-6.86,0.0,-0.94,-5.34,-32.97
1787,0.027999999,2.43,0.24,0.15,-0.7,-7.54,0.0,-0.28,-4.88,-33.15
1788,0.025999999,2.26,0.32,-0.02,-0.29,-6.79,0.0,0.06,-4.49,-33.3
1789,0.027999999,2.22,0.42,0.06,0.24,-6.53,0.0,0.53,-4.18,-33.47
1790,0.027,2.17,0.36,0.14,-0.06,-6.24,0.0,0.92,-3.88,-33.47
1791,0.025999999,2.14,0.57,0.36,1.01,-5.92,0.0,1.43,-3.51,-33.58
