id,dt,accel_x,accel_y,accel_z,accel_angle_x,accel_angle_y,accel_angle_z,angle_x,angle_y,angle_z
0,0.0,-12545.74,6380.59,8816.0,21.22,50.23,0.0,22.25,48.52,75.61
1,0.029999997,-12557.74,6428.59,8900.0,22.67,48.85,0.0,22.27,48.51,75.62
2,0.031,-12421.74,6400.59,8936.0,22.7,48.5,0.0,22.26,48.5,75.63
3,0.028999997,-12361.74,6440.59,8952.0,22.88,48.27,0.0,22.26,48.52,75.59
4,0.031,-12485.73,6312.59,8964.0,22.33,48.72,0.0,22.22,48.56,75.56
5,0.029999997,-12549.73,6316.6,9112.0,22.16,48.55,0.0,22.21,48.59,75.52
6,0.029999997,-12497.72,6436.6,8984.0,22.7,48.52,0.0,22.2,48.6,75.5
7,0.029999997,-12445.72,6368.6,8936.0,22.58,48.61,0.0,22.15,48.63,75.48
8,0.029999997,-12601.71,6320.61,8840.0,22.33,49.24,0.0,22.11,48.69,75.45
9,0.031,-12533.71,6392.61,8952.0,22.54,48.74,0.0,22.11,48.68,75.44
10,0.028999997,-12597.72,6268.61,9036.0,22.02,48.89,0.0,22.13,48.64,75.47
11,0.031,-12565.72,6340.6,8848.0,22.42,49.11,0.0,22.16,48.63,75.5
12,0.029999997,-12433.73,6260.6,9048.0,22.16,48.5,0.0,22.2,48.6,75.51
13,0.031,-12513.73,6308.59,8936.0,22.31,48.85,0.0,22.25,48.57,75.55
14,0.028999997,-12429.74,6264.58,8920.0,22.27,48.76,0.0,22.32,48.51,75.62
15,0.031,-12401.75,6388.57,9080.0,22.57,48.17,0.0,22.39,48.42,75.7
16,0.029999997,-12445.76,6284.56,9000.0,22.26,48.6,0.0,22.47,48.34,75.79
17,0.028999997,-12409.78,6436.55,9176.0,22.64,47.92,0.0,22.55,48.23,75.86
18,0.031,-12313.79,6468.54,9152.0,22.87,47.7,0.0,22.56,48.16,75.91
19,0.029999997,-12305.79,6500.55,9056.0,23.05,47.84,0.0,22.53,48.2,75.85
20,0.029999997,-12425.77,6484.56,9020.0,22.9,48.21,0.0,22.46,48.28,75.75
21,0.029999997,-12465.77,6456.56,9168.0,22.65,48.04,0.0,22.45,48.3,75.72
22,0.031,-12537.77,6452.55,9012.0,22.68,48.53,0.0,22.49,48.28,75.75
23,0.029999997,-12393.78,6472.54,8948.0,22.95,48.31,0.0,22.57,48.22,75.79
24,0.029999997,-12417.79,6496.53,9228.0,22.78,47.74,0.0,22.64,48.15,75.85
25,0.029999997,-12397.8,6480.52,8864.0,23.04,48.48,0.0,22.69,48.12,75.89
26,0.031,-12413.8,6528.52,8984.0,23.08,48.19,0.0,22.75,48.12,75.88
27,0.028999997,-12545.79,6528.52,8972.0,22.95,48.52,0.0,22.76,48.14,75.87
28,0.029999997,-12393.8,6512.52,9076.0,22.98,47.98,0.0,22.75,48.13,75.87
29,0.031,-12253.79,6432.51,9104.0,22.85,47.72,0.0,22.77,48.14,75.84
30,0.029999997,-12337.79,6516.52,8976.0,23.13,48.05,0.0,22.76,48.14,75.82
31,0.029999997,-12417.79,6464.52,9008.0,22.85,48.25,0.0,22.7,48.14,75.82
32,0.029999997,-12533.79,6520.52,9068.0,22.86,48.3,0.0,22.72,48.16,75.81
33,0.031,-12497.79,6408.52,8924.0,22.66,48.69,0.0,22.75,48.16,75.82
34,0.028999997,-12401.79,6444.51,9040.0,22.78,48.17,0.0,22.79,48.13,75.85
35,0.031,-12453.8,6524.51,9180.0,22.87,47.88,0.0,22.81,48.1,75.89
36,0.029999997,-12417.8,6524.51,9044.0,23.02,48.08,0.0,22.81,48.09,75.9
37,0.028999997,-12333.8,6440.51,9064.0,22.82,47.97,0.0,22.83,48.1,75.89
38,0.031,-12413.8,6476.5,8976.0,22.92,48.29,0.0,22.84,48.11,75.87
39,0.029999997,-12497.79,6516.51,9024.0,22.92,48.32,0.0,22.76,48.14,75.86
40,0.031,-12377.79,6620.51,9056.0,23.35,47.82,0.0,22.77,48.14,75.84
41,0.028999997,-12397.79,6444.52,9088.0,22.75,48.07,0.0,22.75,48.16,75.81
42,0.031,-12413.79,6444.53,9092.0,22.73,48.09,0.0,22.68,48.17,75.79
43,0.029999997,-12437.79,6392.52,9060.0,22.56,48.29,0.0,22.7,48.18,75.78
44,0.029999997,-12373.79,6288.52,8988.0,22.36,48.45,0.0,22.69,48.2,75.77
45,0.029999997,-12413.79,6368.53,9068.0,22.51,48.26,0.0,22.66,48.18,75.83
46,0.031,-12333.79,6432.52,9116.0,22.76,47.88,0.0,22.72,48.16,75.82
47,0.029999997,-12429.79,6412.51,8936.0,22.73,48.5,0.0,22.79,48.15,75.83
48,0.028999997,-12273.79,6536.51,8896.0,23.33,48.04,0.0,22.8,48.16,75.83
49,0.031,-12465.79,6400.51,8924.0,22.66,48.63,0.0,22.78,48.18,75.83
50,0.029999997,-12293.79,6500.51,9024.0,23.09,47.88,0.0,22.8,48.16,75.83
51,0.029999997,-12541.79,6472.5,8912.0,22.82,48.72,0.0,22.85,48.18,75.81
52,0.029999997,-12453.79,6488.51,8948.0,22.94,48.42,0.0,22.8,48.2,75.81
53,0.031,-12389.78,6336.52,8892.0,22.57,48.62,0.0,22.76,48.23,75.8
54,0.028999997,-12377.78,6504.53,8880.0,23.13,48.36,0.0,22.66,48.25,75.78
55,0.031,-12413.77,6472.53,8932.0,22.94,48.39,0.0,22.66,48.32,75.7
56,0.029999997,-12429.76,6412.54,8732.0,22.89,48.93,0.0,22.59,48.36,75.72
57,0.031,-12453.75,6380.55,8820.0,22.69,48.85,0.0,22.54,48.42,75.7
58,0.028999997,-12361.74,6244.55,8812.0,22.36,48.87,0.0,22.5,48.5,75.62
59,0.029999997,-12505.74,6344.55,9148.0,22.27,48.33,0.0,22.55,48.5,75.61
60,0.031,-12253.74,6348.54,9204.0,22.51,47.63,0.0,22.58,48.51,75.58
61,0.028999997,-12573.73,6328.56,9004.0,22.26,48.81,0.0,22.46,48.58,75.56
62,0.031,-12465.73,6424.56,9084.0,22.62,48.26,0.0,22.43,48.58,75.56
63,0.029999997,-12453.72,6208.57,9100.0,21.93,48.51,0.0,22.39,48.63,75.51
64,0.031,-12449.72,6372.57,8960.0,22.56,48.56,0.0,22.39,48.66,75.48
65,0.028999997,-12493.72,6276.58,8820.0,22.32,49.1,0.0,22.32,48.66,75.51
66,0.031,-12557.71,6428.58,8596.0,22.9,49.49,0.0,22.31,48.68,75.53
67,0.029999997,-12501.71,6232.57,8872.0,22.13,49.07,0.0,22.36,48.67,75.55
68,0.029999997,-12449.71,6252.57,8888.0,22.24,48.89,0.0,22.38,48.68,75.56
69,0.029999997,-12545.71,6440.57,8784.0,22.81,49.04,0.0,22.39,48.71,75.54
70,0.029999997,-12525.7,6336.57,8936.0,22.39,48.84,0.0,22.36,48.73,75.53
71,0.031,-12597.7,6292.6,8852.0,22.23,49.24,0.0,22.18,48.74,75.55
72,0.028999997,-12541.7,6352.62,8768.0,22.55,49.2,0.0,22.07,48.73,75.57
73,0.031,-12553.71,6472.62,8952.0,22.78,48.66,0.0,22.07,48.72,75.57
74,0.029999997,-12697.7,6404.61,8940.0,22.42,49.11,0.0,22.08,48.74,75.56
75,0.029999997,-12485.7,6340.61,9040.0,22.36,48.52,0.0,22.11,48.74,75.56
76,0.029999997,-12505.7,6356.61,9048.0,22.39,48.53,0.0,22.13,48.75,75.54
77,0.031,-12517.71,6472.59,9016.0,22.77,48.45,0.0,22.22,48.72,75.55
78,0.028999997,-12441.71,6336.58,8880.0,22.52,48.76,0.0,22.29,48.72,75.57
79,0.031,-12461.7,6340.57,8940.0,22.47,48.68,0.0,22.41,48.73,75.54
80,0.029999997,-12461.71,6308.57,8944.0,22.36,48.72,0.0,22.37,48.72,75.56
81,0.029999997,-12433.7,6452.58,9044.0,22.77,48.23,0.0,22.32,48.75,75.5
82,0.029999997,-12585.7,6324.58,8860.0,22.34,49.15,0.0,22.32,48.79,75.47
83,0.029999997,-12441.69,6356.57,8808.0,22.64,48.89,0.0,22.36,48.8,75.46
84,0.031,-12557.7,6188.57,9008.0,21.83,48.98,0.0,22.38,48.78,75.47
85,0.028999997,-12445.71,6376.57,8964.0,22.58,48.54,0.0,22.39,48.72,75.53
86,0.031,-12521.71,6400.57,8876.0,22.64,48.86,0.0,22.41,48.72,75.53
87,0.029999997,-12469.71,6332.57,8812.0,22.53,48.98,0.0,22.4,48.71,75.56
88,0.031,-12389.71,6440.56,8924.0,22.87,48.4,0.0,22.43,48.7,75.54
89,0.028999997,-12453.71,6308.56,8864.0,22.43,48.87,0.0,22.45,48.7,75.56
90,0.031,-12525.71,6336.56,9008.0,22.33,48.69,0.0,22.47,48.7,75.54
91,0.029999997,-12569.71,6320.57,9060.0,22.2,48.7,0.0,22.37,48.71,75.53
92,0.028999997,-12597.7,6492.58,8724.0,22.97,49.21,0.0,22.31,48.75,75.52
93,0.031,-12517.71,6312.58,9008.0,22.26,48.7,0.0,22.33,48.72,75.53
94,0.029999997,-12545.71,6324.58,8924.0,22.34,48.93,0.0,22.33,48.71,75.55
95,0.029999997,-12529.72,6504.58,8916.0,22.93,48.63,0.0,22.34,48.65,75.6
96,0.029999997,-12497.72,6484.57,9164.0,22.71,48.08,0.0,22.38,48.62,75.59
97,0.031,-12509.72,6336.58,8928.0,22.41,48.82,0.0,22.34,48.62,75.59
98,0.029999997,-12273.72,6268.57,8920.0,22.45,48.4,0.0,22.38,48.64,75.54
99,0.029999997,-12393.72,6344.57,9032.0,22.48,48.32,0.0,22.36,48.64,75.51
100,0.029999997,-12569.72,6372.57,9004.0,22.4,48.74,0.0,22.37,48.65,75.5
101,0.029999997,-12657.72,6348.58,9052.0,22.2,48.87,0.0,22.35,48.66,75.48
102,0.029999997,-12517.72,6420.56,8988.0,22.62,48.58,0.0,22.46,48.63,75.52
103,0.029999997,-12437.73,6360.54,8920.0,22.57,48.63,0.0,22.58,48.59,75.55
104,0.031,-12537.73,6400.53,8824.0,22.66,49.0,0.0,22.63,48.58,75.58
105,0.029999997,-12549.72,6320.53,8768.0,22.44,49.27,0.0,22.67,48.61,75.57
106,0.029999997,-12477.73,6504.53,9128.0,22.82,48.08,0.0,22.68,48.59,75.58
107,0.029999997,-12621.72,6392.53,8820.0,22.55,49.21,0.0,22.64,48.64,75.56
108,0.031,-12453.72,6356.54,8892.0,22.56,48.74,0.0,22.61,48.65,75.55
109,0.028999997,-12469.71,6304.55,8884.0,22.38,48.87,0.0,22.52,48.68,75.53
110,0.031,-12545.7,6344.56,8772.0,22.52,49.22,0.0,22.43,48.76,75.48
111,0.029999997,-12561.71,6308.55,9172.0,22.08,48.46,0.0,22.51,48.71,75.53
112,0.028999997,-12389.72,6396.53,9304.0,22.44,47.67,0.0,22.63,48.65,75.55
113,0.031,-12497.72,6332.53,8912.0,22.42,48.83,0.0,22.67,48.62,75.57
114,0.029999997,-12397.72,6324.52,8760.0,22.62,48.94,0.0,22.7,48.61,75.58
115,0.031,-12505.72,6384.52,9108.0,22.43,48.36,0.0,22.7,48.63,75.54
116,0.028999997,-12529.72,6424.54,9120.0,22.52,48.33,0.0,22.62,48.63,75.53
117,0.031,-12277.72,6344.53,9088.0,22.56,47.94,0.0,22.67,48.61,75.5
118,0.029999997,-12461.72,6204.54,8892.0,22.07,48.98,0.0,22.62,48.6,75.52
119,0.029999997,-12541.73,6332.54,9056.0,22.27,48.63,0.0,22.62,48.59,75.55
120,0.029999997,-12441.73,6400.53,8936.0,22.68,48.55,0.0,22.64,48.53,75.6
121,0.031,-12305.74,6336.53,9108.0,22.49,47.97,0.0,22.66,48.5,75.62
122,0.029999997,-12517.73,6368.52,9076.0,22.39,48.48,0.0,22.7,48.55,75.57
123,0.028999997,-12509.74,6468.53,9124.0,22.68,48.21,0.0,22.69,48.52,75.6
124,0.031,-12441.74,6356.51,9280.0,22.28,47.89,0.0,22.77,48.49,75.58
125,0.029999997,-12469.75,6264.52,9044.0,22.13,48.59,0.0,22.74,48.45,75.63
126,0.029999997,-12429.74,6256.52,8888.0,22.27,48.84,0.0,22.75,48.49,75.61
127,0.029999997,-12625.74,6340.53,8840.0,22.37,49.26,0.0,22.68,48.49,75.63
128,0.031,-12365.75,6400.54,9092.0,22.64,48.05,0.0,22.58,48.47,75.65
129,0.028999997,-12609.74,6208.56,8856.0,21.95,49.39,0.0,22.46,48.5,75.66
130,0.031,-12473.74,6312.56,8864.0,22.42,48.91,0.0,22.47,48.51,75.65
131,0.029999997,-12509.74,6352.56,8940.0,22.45,48.77,0.0,22.48,48.51,75.65
132,0.031,-12345.74,6452.55,8932.0,22.95,48.26,0.0,22.5,48.5,75.64
133,0.028999997,-12397.74,6368.55,8836.0,22.7,48.71,0.0,22.53,48.52,75.63
134,0.029999997,-12533.74,6416.55,8820.0,22.72,48.98,0.0,22.51,48.52,75.64
135,0.031,-12581.73,6472.55,8900.0,22.79,48.83,0.0,22.52,48.54,75.64
136,0.028999997,-12565.73,6276.54,9036.0,22.08,48.81,0.0,22.56,48.54,75.63
137,0.031,-12393.73,6360.54,8860.0,22.66,48.66,0.0,22.59,48.54,75.64
138,0.029999997,-12473.74,6224.54,9052.0,22.0,48.64,0.0,22.62,48.53,75.64
139,0.031,-12385.74,6476.53,8956.0,22.97,48.27,0.0,22.65,48.51,75.65
140,0.028999997,-12485.74,6412.53,8992.0,22.63,48.51,0.0,22.65,48.51,75.64
141,0.031,-12469.74,6356.53,8848.0,22.58,48.87,0.0,22.63,48.52,75.65
142,0.029999997,-12489.74,6484.53,8880.0,22.94,48.65,0.0,22.69,48.53,75.64
143,0.029999997,-12381.74,6412.53,8992.0,22.74,48.28,0.0,22.68,48.49,75.67
144,0.029999997,-12409.74,6368.53,9124.0,22.47,48.13,0.0,22.67,48.47,75.68
145,0.029999997,-12465.74,6252.54,9048.0,22.1,48.59,0.0,22.61,48.48,75.69
146,0.031,-12469.74,6364.54,8832.0,22.62,48.89,0.0,22.59,48.51,75.68
147,0.028999997,-12497.74,6448.53,8968.0,22.75,48.54,0.0,22.62,48.51,75.66
148,0.031,-12529.73,6344.54,8744.0,22.55,49.24,0.0,22.6,48.55,75.66
149,0.029999997,-12393.73,6328.54,8920.0,22.52,48.58,0.0,22.57,48.55,75.67
150,0.029999997,-12385.73,6312.55,8928.0,22.47,48.57,0.0,22.55,48.57,75.64
151,0.029999997,-12489.72,6376.55,8984.0,22.52,48.59,0.0,22.52,48.61,75.59
152,0.031,-12373.72,6452.56,8836.0,23.0,48.53,0.0,22.48,48.6,75.6
153,0.028999997,-12497.72,6424.55,8828.0,22.78,48.87,0.0,22.53,48.62,75.58
154,0.031,-12641.72,6360.55,9052.0,22.25,48.82,0.0,22.5,48.61,75.59
155,0.029999997,-12457.72,6440.56,8952.0,22.78,48.49,0.0,22.48,48.62,75.58
156,0.029999997,-12429.72,6316.56,8892.0,22.46,48.74,0.0,22.49,48.62,75.58
157,0.029999997,-12533.72,6308.56,8852.0,22.35,49.08,0.0,22.47,48.65,75.57
158,0.029999997,-12521.72,6308.56,8920.0,22.31,48.9,0.0,22.44,48.65,75.57
159,0.031,-12561.71,6440.56,8880.0,22.72,48.88,0.0,22.44,48.69,75.54
160,0.028999997,-12521.7,6312.57,8868.0,22.37,49.01,0.0,22.4,48.74,75.49
161,0.031,-12537.7,6340.57,8856.0,22.45,49.03,0.0,22.41,48.76,75.46
162,0.029999997,-12549.7,6328.56,8868.0,22.39,49.05,0.0,22.42,48.77,75.46
163,0.031,-12485.7,6444.57,8960.0,22.75,48.53,0.0,22.41,48.76,75.47
164,0.028999997,-12545.7,6304.57,8948.0,22.26,48.9,0.0,22.41,48.77,75.46
165,0.029999997,-12437.7,6360.57,8924.0,22.57,48.63,0.0,22.4,48.8,75.44
166,0.031,-12493.69,6136.58,8892.0,21.81,49.16,0.0,22.32,48.85,75.4
167,0.028999997,-12553.68,6288.58,8968.0,22.18,48.9,0.0,22.31,48.86,75.38
168,0.031,-12573.69,6296.58,9004.0,22.16,48.86,0.0,22.3,48.84,75.4
169,0.029999997,-12537.69,6288.58,8696.0,22.4,49.45,0.0,22.32,48.85,75.41
170,0.029999997,-12585.68,6296.58,8780.0,22.31,49.36,0.0,22.31,48.87,75.41
171,0.029999997,-12613.68,6324.58,8948.0,22.25,49.03,0.0,22.31,48.87,75.42
172,0.031,-12493.68,6228.58,8756.0,22.21,49.31,0.0,22.3,48.9,75.4
173,0.029999997,-12561.68,6412.58,8848.0,22.66,48.99,0.0,22.29,48.92,75.39
174,0.029999997,-12649.67,6264.58,8864.0,22.08,49.38,0.0,22.28,48.95,75.38
175,0.029999997,-12561.67,6260.58,8812.0,22.2,49.3,0.0,22.3,48.96,75.38
176,0.029999997,-12657.66,6196.58,8840.0,21.87,49.55,0.0,22.3,48.99,75.37
177,0.029999997,-12705.66,6268.58,8984.0,21.95,49.24,0.0,22.28,49.0,75.38
178,0.029999997,-12665.66,6288.58,8788.0,22.2,49.54,0.0,22.28,49.03,75.36
179,0.031,-12461.66,6312.59,8908.0,22.4,48.79,0.0,22.27,49.04,75.36
180,0.029999997,-12549.66,6368.59,8764.0,22.59,49.21,0.0,22.26,49.05,75.36
181,0.029999997,-12665.65,6216.59,8880.0,21.9,49.45,0.0,22.26,49.06,75.37
182,0.029999997,-12649.65,6240.59,8896.0,21.98,49.35,0.0,22.28,49.06,75.38
183,0.031,-12549.66,6352.58,8800.0,22.52,49.15,0.0,22.29,49.06,75.39
184,0.028999997,-12413.66,6264.58,8832.0,22.36,48.91,0.0,22.29,49.05,75.39
185,0.031,-12661.65,6260.59,8724.0,22.16,49.71,0.0,22.28,49.07,75.39
186,0.029999997,-12497.66,6300.59,8972.0,22.28,48.75,0.0,22.28,49.06,75.39
187,0.028999997,-12613.66,6368.58,8936.0,22.4,48.99,0.0,22.28,49.05,75.39
188,0.031,-12601.65,6252.58,8820.0,22.13,49.38,0.0,22.28,49.07,75.4
189,0.029999997,-12497.65,6172.59,8892.0,21.93,49.11,0.0,22.26,49.07,75.4
190,0.031,-12649.65,6312.59,8992.0,22.14,49.03,0.0,22.24,49.06,75.4
191,0.028999997,-12637.65,6300.59,8904.0,22.18,49.21,0.0,22.24,49.07,75.39
192,0.031,-12581.65,6280.59,9004.0,22.1,48.9,0.0,22.24,49.08,75.38
193,0.029999997,-12569.65,6340.59,8896.0,22.38,49.02,0.0,22.25,49.07,75.38
194,0.029999997,-12585.66,6316.59,8920.0,22.27,49.04,0.0,22.26,49.06,75.39
195,0.029999997,-12733.65,6288.59,8808.0,22.11,49.65,0.0,22.25,49.07,75.4
196,0.031,-12549.65,6300.59,8792.0,22.36,49.25,0.0,22.26,49.07,75.4
197,0.029999997,-12645.65,6232.59,9016.0,21.87,49.09,0.0,22.24,49.06,75.41
198,0.028999997,-12589.65,6296.59,8692.0,22.37,49.56,0.0,22.24,49.07,75.43
199,0.031,-12629.65,6208.59,8884.0,21.91,49.37,0.0,22.22,49.07,75.42
200,0.029999997,-12601.65,6284.6,8940.0,22.14,49.08,0.0,22.21,49.08,75.41
201,0.029999997,-12581.65,6280.6,8884.0,22.19,49.16,0.0,22.21,49.09,75.41
202,0.029999997,-12557.65,6360.59,8840.0,22.5,49.08,0.0,22.21,49.09,75.4
203,0.031,-12565.65,6312.59,8928.0,22.27,48.98,0.0,22.21,49.08,75.4
204,0.029999997,-12457.65,6300.59,8688.0,22.53,49.26,0.0,22.23,49.09,75.4
205,0.029999997,-12581.65,6264.6,8860.0,22.16,49.23,0.0,22.2,49.09,75.4
206,0.029999997,-12573.65,6312.6,8836.0,22.34,49.19,0.0,22.2,49.09,75.4
207,0.031,-12605.65,6316.59,8892.0,22.27,49.14,0.0,22.21,49.09,75.4
208,0.028999997,-12621.65,6356.6,8716.0,22.51,49.49,0.0,22.2,49.1,75.4
209,0.029999997,-12669.64,6316.6,8728.0,22.33,49.63,0.0,22.19,49.13,75.39
210,0.031,-12477.64,6240.6,8588.0,22.4,49.62,0.0,22.21,49.14,75.39
211,0.028999997,-12617.64,6328.6,8920.0,22.28,49.09,0.0,22.21,49.14,75.39
212,0.031,-12605.64,6320.59,8840.0,22.32,49.24,0.0,22.21,49.15,75.38
213,0.029999997,-12561.64,6312.6,8796.0,22.38,49.25,0.0,22.21,49.16,75.37
214,0.031,-12621.64,6320.6,9012.0,22.18,48.92,0.0,22.2,49.14,75.37
215,0.028999997,-12629.64,6228.6,9004.0,21.88,49.09,0.0,22.2,49.13,75.38
216,0.031,-12549.64,6260.6,8936.0,22.12,49.01,0.0,22.18,49.13,75.38
217,0.029999997,-12569.65,6360.6,8952.0,22.4,48.87,0.0,22.18,49.12,75.38
218,0.029999997,-12629.65,6280.6,8944.0,22.09,49.14,0.0,22.16,49.12,75.38
219,0.029999997,-12601.64,6364.6,8812.0,22.49,49.23,0.0,22.16,49.13,75.37
220,0.029999997,-12657.64,6272.6,8784.0,22.16,49.55,0.0,22.16,49.14,75.37
221,0.031,-12545.64,6312.6,8836.0,22.37,49.13,0.0,22.19,49.13,75.38
222,0.028999997,-12681.64,6320.6,8804.0,22.27,49.49,0.0,22.17,49.13,75.38
223,0.031,-12429.65,6164.6,8848.0,22.01,49.07,0.0,22.18,49.12,75.39
224,0.029999997,-12557.65,6268.6,8844.0,22.21,49.21,0.0,22.17,49.12,75.39
225,0.029999997,-12641.65,6212.6,8940.0,21.87,49.27,0.0,22.17,49.12,75.39
226,0.029999997,-12601.65,6340.6,8912.0,22.34,49.05,0.0,22.17,49.11,75.39
227,0.031,-12581.65,6296.6,8888.0,22.24,49.13,0.0,22.17,49.11,75.38
228,0.028999997,-12517.64,6416.6,8656.0,22.86,49.29,0.0,22.19,49.13,75.38
229,0.029999997,-12629.65,6380.6,8964.0,22.39,48.95,0.0,22.19,49.12,75.38
230,0.031,-12617.65,6292.6,8932.0,22.15,49.12,0.0,22.19,49.12,75.37
231,0.029999997,-12609.65,6352.6,8920.0,22.36,49.04,0.0,22.18,49.11,75.37
232,0.029999997,-12525.65,6244.6,8780.0,22.21,49.31,0.0,22.18,49.12,75.38
233,0.029999997,-12545.65,6256.6,8916.0,22.13,49.04,0.0,22.17,49.12,75.38
234,0.031,-12501.65,6288.6,8816.0,22.35,49.11,0.0,22.18,49.11,75.38
235,0.028999997,-12557.65,6228.6,8964.0,21.99,49.01,0.0,22.17,49.11,75.38
236,0.031,-12493.65,6312.6,8992.0,22.3,48.68,0.0,22.18,49.09,75.39
237,0.029999997,-12609.65,6324.6,8888.0,22.3,49.15,0.0,22.16,49.09,75.38
238,0.031,-12545.65,6248.6,8840.0,22.16,49.22,0.0,22.19,49.09,75.39
239,0.028999997,-12585.65,6380.6,8860.0,22.52,49.07,0.0,22.19,49.09,75.38
240,0.029999997,-12729.65,6260.6,8796.0,22.03,49.71,0.0,22.18,49.11,75.38
241,0.031,-12509.65,6264.6,8752.0,22.31,49.3,0.0,22.17,49.12,75.38
242,0.028999997,-12629.65,6284.6,8864.0,22.17,49.3,0.0,22.17,49.12,75.38
243,0.031,-12565.64,6232.6,8856.0,22.07,49.25,0.0,22.16,49.12,75.38
244,0.029999997,-12529.64,6364.6,8780.0,22.59,49.13,0.0,22.18,49.12,75.38
245,0.031,-12533.65,6264.6,9020.0,22.09,48.78,0.0,22.16,49.12,75.37
246,0.028999997,-12561.65,6336.6,8868.0,22.4,49.06,0.0,22.16,49.11,75.37
247,0.031,-12705.64,6324.6,8764.0,22.29,49.62,0.0,22.16,49.13,75.36
248,0.029999997,-12713.65,6364.6,9048.0,22.19,48.98,0.0,22.16,49.1,75.38
249,0.029999997,-12601.65,6264.6,8996.0,22.03,48.99,0.0,22.17,49.08,75.39
250,0.029999997,-12469.65,6348.6,8716.0,22.65,49.16,0.0,22.19,49.07,75.4
251,0.029999997,-12545.65,6300.6,8748.0,22.39,49.34,0.0,22.2,49.08,75.4
252,0.029999997,-12617.65,6360.6,8860.0,22.42,49.17,0.0,22.2,49.09,75.4
253,0.029999997,-12549.65,6316.6,8948.0,22.29,48.9,0.0,22.21,49.07,75.41
254,0.031,-12581.65,6296.6,8884.0,22.24,49.13,0.0,22.21,49.07,75.4
255,0.029999997,-12569.65,6248.6,8716.0,22.22,49.54,0.0,22.2,49.1,75.39
256,0.029999997,-12709.65,6248.6,9012.0,21.86,49.22,0.0,22.18,49.11,75.39
257,0.029999997,-12621.64,6288.6,8784.0,22.25,49.45,0.0,22.17,49.12,75.39
258,0.031,-12573.64,6280.6,8876.0,22.2,49.16,0.0,22.15,49.13,75.39
259,0.028999997,-12613.65,6316.61,9016.0,22.17,48.9,0.0,22.14,49.12,75.39
260,0.031,-12545.65,6260.61,8848.0,22.19,49.18,0.0,22.13,49.12,75.38
261,0.029999997,-12717.64,6304.61,8856.0,22.14,49.49,0.0,22.11,49.14,75.38
262,0.029999997,-12549.64,6280.61,8928.0,22.19,48.99,0.0,22.11,49.14,75.38
263,0.029999997,-12621.64,6264.61,8808.0,22.15,49.43,0.0,22.1,49.15,75.38
264,0.029999997,-12549.64,6264.61,8812.0,22.23,49.26,0.0,22.09,49.16,75.37
265,0.031,-12569.64,6332.61,8804.0,22.43,49.22,0.0,22.1,49.16,75.37
266,0.028999997,-12649.64,6384.61,8640.0,22.63,49.67,0.0,22.11,49.18,75.38
267,0.031,-12573.64,6296.61,8760.0,22.34,49.38,0.0,22.12,49.18,75.37
268,0.029999997,-12649.63,6360.61,8836.0,22.41,49.29,0.0,22.13,49.19,75.37
269,0.029999997,-12677.63,6340.61,8724.0,22.4,49.62,0.0,22.13,49.2,75.37
270,0.029999997,-12637.63,6360.6,8784.0,22.46,49.37,0.0,22.15,49.21,75.36
271,0.031,-12553.63,6296.6,8800.0,22.33,49.25,0.0,22.15,49.22,75.36
272,0.029999997,-12549.63,6260.6,8976.0,22.09,48.92,0.0,22.14,49.22,75.35
273,0.028999997,-12473.63,6312.6,8688.0,22.56,49.28,0.0,22.16,49.23,75.34
274,0.031,-12561.62,6160.61,8744.0,21.93,49.59,0.0,22.13,49.26,75.33
275,0.029999997,-12573.63,6304.61,8988.0,22.2,48.88,0.0,22.13,49.24,75.33
276,0.029999997,-12545.63,6328.61,8892.0,22.37,48.99,0.0,22.13,49.21,75.34
277,0.029999997,-12649.63,6296.61,8828.0,22.21,49.41,0.0,22.14,49.21,75.35
278,0.031,-12585.63,6256.61,8852.0,22.13,49.27,0.0,22.13,49.21,75.35
279,0.029999997,-12645.63,6340.61,9084.0,22.16,48.79,0.0,22.13,49.2,75.35
280,0.029999997,-12597.63,6244.61,8800.0,22.12,49.43,0.0,22.11,49.21,75.35
281,0.029999997,-12589.63,6132.61,8752.0,21.8,49.68,0.0,22.1,49.23,75.35
282,0.031,-12593.63,6216.61,9004.0,21.88,49.02,0.0,22.08,49.23,75.34
283,0.028999997,-12529.63,6176.62,8852.0,21.93,49.27,0.0,22.07,49.24,75.34
284,0.029999997,-12629.62,6156.62,8864.0,21.76,49.49,0.0,22.04,49.25,75.33
285,0.031,-12657.62,6264.62,8824.0,22.1,49.48,0.0,22.04,49.26,75.33
286,0.028999997,-12577.63,6352.62,8936.0,22.38,48.93,0.0,22.05,49.25,75.33
287,0.031,-12597.62,6176.62,8724.0,21.96,49.69,0.0,22.05,49.26,75.33
288,0.029999997,-12677.62,6136.62,8808.0,21.68,49.75,0.0,22.05,49.26,75.35
289,0.031,-12701.62,6228.62,8824.0,21.94,49.63,0.0,22.06,49.25,75.37
290,0.028999997,-12505.63,6252.62,8808.0,22.24,49.19,0.0,22.07,49.24,75.39
291,0.031,-12593.63,6352.61,8964.0,22.34,48.91,0.0,22.09,49.21,75.4
292,0.029999997,-12621.63,6268.61,8836.0,22.14,49.37,0.0,22.1,49.21,75.39
293,0.028999997,-12581.63,6232.61,8984.0,21.96,49.02,0.0,22.08,49.2,75.4
294,0.031,-12565.63,6256.61,8780.0,22.21,49.38,0.0,22.09,49.2,75.4
295,0.029999997,-12697.63,6268.61,8776.0,22.11,49.67,0.0,22.1,49.2,75.41
296,0.031,-12613.63,6240.61,8784.0,22.1,49.5,0.0,22.1,49.19,75.43
297,0.028999997,-12513.64,6236.61,8816.0,22.17,49.22,0.0,22.1,49.18,75.42
298,0.031,-12633.64,6264.61,8908.0,22.06,49.25,0.0,22.09,49.19,75.42
299,0.029999997,-12633.63,6292.61,8688.0,22.32,49.67,0.0,22.1,49.21,75.4
300,0.029999997,-12505.63,6312.61,8876.0,22.38,48.95,0.0,22.11,49.2,75.41
301,0.029999997,-12525.63,6232.61,8772.0,22.18,49.34,0.0,22.11,49.2,75.42
302,0.031,-12573.63,6212.61,8712.0,22.11,49.61,0.0,22.12,49.2,75.42
303,0.028999997,-12453.64,6392.6,8908.0,22.66,48.65,0.0,22.14,49.16,75.44
304,0.029999997,-12537.64,6316.6,8864.0,22.37,49.05,0.0,22.15,49.15,75.44
305,0.031,-12589.64,6312.6,8888.0,22.28,49.12,0.0,22.16,49.15,75.44
306,0.029999997,-12629.64,6304.6,8592.0,22.43,49.85,0.0,22.16,49.17,75.44
307,0.029999997,-12641.64,6348.6,8768.0,22.43,49.44,0.0,22.18,49.19,75.43
308,0.029999997,-12609.63,6292.6,8776.0,22.28,49.43,0.0,22.17,49.2,75.43
309,0.031,-12585.63,6232.6,8888.0,22.03,49.23,0.0,22.17,49.2,75.42
310,0.028999997,-12577.63,6208.6,8900.0,21.95,49.22,0.0,22.15,49.2,75.42
311,0.031,-12489.63,6224.6,8948.0,22.06,48.9,0.0,22.15,49.19,75.42
312,0.029999997,-12545.63,6268.61,8776.0,22.27,49.33,0.0,22.13,49.2,75.41
313,0.031,-12549.64,6296.61,8896.0,22.26,49.04,0.0,22.14,49.18,75.41
314,0.028999997,-12469.64,6284.6,8752.0,22.42,49.18,0.0,22.14,49.18,75.42
315,0.029999997,-12613.64,6276.61,8832.0,22.18,49.35,0.0,22.13,49.18,75.42
316,0.031,-12637.63,6232.61,8732.0,22.09,49.68,0.0,22.13,49.2,75.42
317,0.028999997,-12569.63,6392.6,8848.0,22.59,49.04,0.0,22.14,49.19,75.42
318,0.031,-12545.63,6212.61,8700.0,22.15,49.57,0.0,22.14,49.2,75.43
319,0.029999997,-12617.63,6252.61,8768.0,22.15,49.53,0.0,22.14,49.21,75.43
320,0.031,-12541.63,6312.6,8800.0,22.4,49.2,0.0,22.15,49.21,75.42
321,0.028999997,-12489.63,6240.61,8892.0,22.15,48.99,0.0,22.14,49.2,75.42
322,0.031,-12629.63,6344.6,8752.0,22.44,49.45,0.0,22.15,49.2,75.42
323,0.029999997,-12497.63,6248.6,8692.0,22.32,49.43,0.0,22.15,49.2,75.42
324,0.029999997,-12621.63,6300.6,8908.0,22.19,49.17,0.0,22.16,49.2,75.43
325,0.029999997,-12581.63,6228.6,8652.0,22.2,49.73,0.0,22.14,49.22,75.43
326,0.029999997,-12601.63,6264.61,8832.0,22.16,49.34,0.0,22.14,49.23,75.43
327,0.029999997,-12613.63,6208.61,8864.0,21.94,49.38,0.0,22.13,49.23,75.43
328,0.029999997,-12661.63,6256.6,8852.0,22.05,49.44,0.0,22.15,49.22,75.44
329,0.031,-12597.63,6296.6,8920.0,22.2,49.09,0.0,22.15,49.2,75.45
330,0.029999997,-12553.64,6272.6,8800.0,22.26,49.29,0.0,22.17,49.19,75.46
331,0.029999997,-12589.63,6272.6,8788.0,22.23,49.39,0.0,22.17,49.19,75.46
332,0.029999997,-12501.64,6116.6,8876.0,21.75,49.24,0.0,22.15,49.19,75.48
333,0.031,-12521.64,6320.6,8788.0,22.45,49.17,0.0,22.16,49.18,75.47
334,0.028999997,-12549.64,6204.6,8832.0,22.02,49.31,0.0,22.15,49.18,75.47
335,0.031,-12481.64,6300.6,8872.0,22.37,48.93,0.0,22.15,49.16,75.47
336,0.029999997,-12569.64,6372.6,9008.0,22.4,48.73,0.0,22.16,49.13,75.48
337,0.029999997,-12569.65,6300.6,8880.0,22.27,49.11,0.0,22.17,49.1,75.5
338,0.029999997,-12581.65,6256.6,8880.0,22.12,49.2,0.0,22.17,49.07,75.52
339,0.029999997,-12513.66,6304.6,8892.0,22.33,48.95,0.0,22.19,49.04,75.54
340,0.031,-12533.66,6220.6,8792.0,22.12,49.34,0.0,22.2,49.01,75.56
341,0.028999997,-12473.67,6268.59,8896.0,22.26,48.91,0.0,22.23,48.95,75.6
342,0.031,-12533.68,6304.59,8856.0,22.34,49.07,0.0,22.23,48.91,75.63
343,0.029999997,-12521.68,6328.59,8840.0,22.44,49.04,0.0,22.25,48.88,75.66
344,0.029999997,-12465.69,6340.59,8904.0,22.49,48.76,0.0,22.27,48.85,75.68
345,0.029999997,-12493.7,6404.58,9092.0,22.52,48.34,0.0,22.29,48.79,75.7
346,0.031,-12509.7,6392.58,8992.0,22.54,48.6,0.0,22.32,48.74,75.74
347,0.029999997,-12517.7,6384.58,8980.0,22.51,48.65,0.0,22.32,48.73,75.74
348,0.028999997,-12589.7,6420.57,8772.0,22.71,49.2,0.0,22.35,48.75,75.74
349,0.031,-12545.71,6304.57,8980.0,22.23,48.84,0.0,22.38,48.7,75.8
350,0.029999997,-12457.72,6448.56,8876.0,22.86,48.64,0.0,22.47,48.61,75.89
351,0.029999997,-12477.74,6528.54,8924.0,23.06,48.46,0.0,22.56,48.51,75.99
352,0.029999997,-12385.75,6580.54,8888.0,23.35,48.25,0.0,22.62,48.45,76.05
353,0.031,-12497.74,6300.54,9100.0,22.18,48.48,0.0,22.6,48.48,76.02
354,0.029999997,-12461.75,6496.53,8940.0,22.96,48.44,0.0,22.64,48.45,76.05
355,0.029999997,-12357.75,6556.53,8884.0,23.31,48.23,0.0,22.69,48.4,76.09
356,0.029999997,-12397.76,6472.52,9064.0,22.86,48.07,0.0,22.71,48.38,76.09
357,0.029999997,-12317.76,6344.52,8840.0,22.71,48.55,0.0,22.72,48.35,76.12
358,0.029999997,-12405.77,6528.51,8864.0,23.18,48.42,0.0,22.78,48.29,76.18
359,0.029999997,-12401.78,6528.5,9028.0,23.06,48.07,0.0,22.83,48.21,76.25
360,0.031,-12461.79,6576.5,8916.0,23.23,48.37,0.0,22.88,48.17,76.3
361,0.028999997,-12421.79,6556.49,9024.0,23.13,48.09,0.0,22.93,48.14,76.32
362,0.031,-12449.79,6520.48,9020.0,22.99,48.21,0.0,22.97,48.14,76.33
363,0.029999997,-12349.79,6644.48,8956.0,23.54,47.93,0.0,22.98,48.14,76.32
364,0.031,-12405.78,6516.49,8904.0,23.11,48.36,0.0,22.92,48.22,76.26
365,0.028999997,-12505.76,6500.5,8976.0,22.9,48.46,0.0,22.84,48.35,76.15
366,0.031,-12469.75,6432.52,8832.0,22.83,48.78,0.0,22.76,48.46,76.05
367,0.029999997,-12425.74,6344.52,8840.0,22.59,48.8,0.0,22.72,48.49,76.04
368,0.028999997,-12429.74,6368.53,9144.0,22.43,48.13,0.0,22.68,48.49,76.01
369,0.031,-12481.74,6388.53,9012.0,22.54,48.5,0.0,22.66,48.49,76.01
370,0.029999997,-12477.75,6476.53,9040.0,22.8,48.3,0.0,22.64,48.47,76.01
371,0.031,-12457.75,6492.53,8984.0,22.92,48.35,0.0,22.63,48.44,76.02
372,0.028999997,-12417.75,6396.53,8932.0,22.7,48.51,0.0,22.64,48.42,76.04
373,0.031,-12401.75,6400.53,8924.0,22.73,48.48,0.0,22.66,48.4,76.07
374,0.029999997,-12425.76,6376.53,9200.0,22.42,48.0,0.0,22.69,48.37,76.07
375,0.029999997,-12485.76,6468.52,9040.0,22.77,48.33,0.0,22.71,48.36,76.09
376,0.029999997,-12461.76,6436.52,8836.0,22.85,48.75,0.0,22.74,48.37,76.1
377,0.031,-12385.76,6372.52,8972.0,22.62,48.39,0.0,22.72,48.37,76.09
378,0.029999997,-12393.75,6380.53,8780.0,22.79,48.8,0.0,22.68,48.4,76.06
379,0.028999997,-12349.75,6432.53,8800.0,22.99,48.58,0.0,22.63,48.44,76.01
380,0.031,-12461.74,6428.54,8976.0,22.72,48.47,0.0,22.56,48.48,75.96
381,0.029999997,-12493.74,6328.55,8900.0,22.42,48.85,0.0,22.5,48.52,75.92
382,0.029999997,-12429.74,6400.56,8908.0,22.72,48.58,0.0,22.48,48.52,75.9
383,0.029999997,-11989.79,6204.5,9248.0,22.29,47.12,0.0,22.84,48.2,75.85
384,0.031,-12549.79,6340.51,8924.0,22.38,48.91,0.0,22.81,48.18,75.89
385,0.028999997,-12541.8,6472.5,9060.0,22.71,48.41,0.0,22.85,48.13,75.95
386,0.031,-12465.81,6552.49,9052.0,23.05,48.14,0.0,22.92,48.05,76.04
387,0.029999997,-12365.82,6528.48,9084.0,23.05,47.88,0.0,23.02,47.97,76.11
388,0.031,-12349.83,6420.47,8988.0,22.8,48.2,0.0,23.07,47.91,76.17
389,0.028999997,-12405.84,6552.46,9028.0,23.13,48.05,0.0,23.11,47.85,76.22
390,0.029999997,-12361.85,6552.46,9068.0,23.15,47.86,0.0,23.14,47.8,76.27
391,0.031,-12409.85,6512.46,9032.0,23.0,48.11,0.0,23.15,47.79,76.29
392,0.028999997,-12361.85,6552.46,9180.0,23.06,47.63,0.0,23.14,47.78,76.28
393,0.031,-12321.85,6516.46,8832.0,23.26,48.32,0.0,23.13,47.8,76.28
394,0.029999997,-12385.84,6644.46,9076.0,23.4,47.76,0.0,23.12,47.83,76.26
395,0.031,-12349.84,6556.46,9028.0,23.2,47.91,0.0,23.12,47.86,76.25
396,0.028999997,-12273.83,6472.46,9036.0,23.01,47.85,0.0,23.12,47.87,76.23
397,0.031,-12365.83,6612.46,8796.0,23.55,48.34,0.0,23.13,47.9,76.22
398,0.029999997,-12369.83,6476.46,8980.0,22.97,48.18,0.0,23.12,47.91,76.22
399,0.029999997,-12461.83,6460.46,8984.0,22.81,48.4,0.0,23.11,47.92,76.21
400,0.029999997,-12409.83,6436.47,9064.0,22.73,48.15,0.0,23.09,47.93,76.22
401,0.029999997,-12401.83,6592.46,9092.0,23.21,47.85,0.0,23.12,47.9,76.23
402,0.029999997,-12357.83,6488.46,8952.0,23.04,48.19,0.0,23.12,47.88,76.26
403,0.029999997,-12393.83,6492.46,8848.0,23.1,48.48,0.0,23.13,47.87,76.28
404,0.031,-12365.84,6528.46,9048.0,23.08,47.95,0.0,23.13,47.86,76.3
405,0.029999997,-12421.84,6544.46,9172.0,22.97,47.8,0.0,23.12,47.85,76.29
406,0.029999997,-12385.84,6528.46,9020.0,23.08,48.05,0.0,23.13,47.86,76.3
407,0.029999997,-12297.84,6564.46,9112.0,23.22,47.61,0.0,23.12,47.85,76.3
408,0.031,-12377.84,6528.46,8956.0,23.14,48.17,0.0,23.11,47.86,76.29
409,0.028999997,-12285.84,6536.47,9148.0,23.11,47.55,0.0,23.1,47.87,76.27
410,0.031,-12417.83,6520.47,9024.0,23.02,48.13,0.0,23.09,47.9,76.25
411,0.029999997,-12413.82,6448.47,8984.0,22.83,48.31,0.0,23.05,47.94,76.22
412,0.029999997,-12445.82,6568.47,9028.0,23.14,48.11,0.0,23.03,47.97,76.2
413,0.029999997,-12417.82,6576.48,8884.0,23.31,48.34,0.0,23.03,47.98,76.2
414,0.029999997,-12497.82,6580.47,8888.0,23.23,48.5,0.0,23.04,48.0,76.22
415,0.031,-12477.82,6572.47,8984.0,23.15,48.27,0.0,23.05,47.99,76.23
416,0.028999997,-12225.82,6632.47,9024.0,23.58,47.52,0.0,23.08,47.96,76.24
417,0.031,-12401.82,6568.46,8984.0,23.22,48.1,0.0,23.11,47.94,76.27
418,0.029999997,-12213.83,6536.46,8992.0,23.32,47.7,0.0,23.14,47.91,76.29
419,0.031,-12421.83,6512.46,8972.0,23.03,48.26,0.0,23.13,47.91,76.3
420,0.028999997,-12397.83,6464.46,9056.0,22.84,48.1,0.0,23.13,47.9,76.32
421,0.029999997,-12305.83,6572.46,8868.0,23.43,48.12,0.0,23.15,47.88,76.33
422,0.031,-12373.83,6580.46,8944.0,23.32,48.1,0.0,23.17,47.87,76.35
423,0.028999997,-12393.84,6560.45,9000.0,23.19,48.07,0.0,23.18,47.86,76.37
424,0.031,-12349.84,6564.45,9084.0,23.18,47.78,0.0,23.21,47.85,76.38
425,0.029999997,-12397.84,6588.45,9036.0,23.25,47.96,0.0,23.22,47.86,76.38
426,0.029999997,-12361.84,6652.45,8952.0,23.55,47.95,0.0,23.22,47.87,76.38
427,0.029999997,-12317.84,6588.45,8940.0,23.41,47.97,0.0,23.23,47.87,76.38
428,0.031,-12441.83,6528.45,8920.0,23.1,48.39,0.0,23.21,47.9,76.38
429,0.029999997,-12357.83,6588.45,8888.0,23.41,48.17,0.0,23.2,47.92,76.37
430,0.029999997,-12301.83,6616.45,9044.0,23.43,47.68,0.0,23.2,47.91,76.36
431,0.029999997,-12413.83,6572.45,8952.0,23.24,48.19,0.0,23.22,47.91,76.37
432,0.029999997,-12289.83,6540.45,9036.0,23.21,47.78,0.0,23.23,47.89,76.37
433,0.029999997,-12301.84,6516.45,8964.0,23.18,47.99,0.0,23.23,47.87,76.39
434,0.029999997,-12313.84,6564.44,8980.0,23.31,47.92,0.0,23.28,47.85,76.42
435,0.031,-12621.84,6820.51,7972.0,24.56,50.27,0.0,22.8,47.81,76.71
436,0.029999997,-11989.88,6564.52,8836.0,23.79,47.45,0.0,22.75,47.56,77.04
437,0.029999997,-11881.89,6656.58,8956.0,24.11,46.81,0.0,22.3,47.49,77.25
438,0.029999997,-12333.89,6928.52,9800.0,23.74,45.79,0.0,22.71,47.52,76.97
439,0.031,-12325.88,6796.48,8600.0,24.34,48.36,0.0,23.03,47.58,76.88
440,0.028999997,-12237.89,6660.47,9036.0,23.65,47.48,0.0,23.04,47.51,76.94
441,0.031,-12181.88,6600.47,9072.0,23.49,47.37,0.0,23.09,47.59,76.81
442,0.029999997,-12317.87,6664.46,9200.0,23.44,47.33,0.0,23.13,47.65,76.73
443,0.028999997,-12293.86,6596.45,8824.0,23.56,48.14,0.0,23.18,47.74,76.69
444,0.031,-12297.86,6648.42,9164.0,23.44,47.38,0.0,23.43,47.74,76.71
445,0.029999997,-12469.85,6744.41,9240.0,23.49,47.48,0.0,23.48,47.78,76.55
446,0.031,-12657.85,6936.41,9400.0,23.75,47.3,0.0,23.48,47.76,76.55
447,0.028999997,-12421.87,6916.42,9072.0,24.22,47.45,0.0,23.41,47.67,76.64
448,0.031,-12305.88,6844.42,9040.0,24.15,47.35,0.0,23.38,47.55,76.73
449,0.029999997,-12357.89,6840.42,9184.0,23.96,47.19,0.0,23.38,47.51,76.8
450,0.029999997,-12253.89,6632.42,8952.0,23.61,47.73,0.0,23.42,47.54,76.75
451,0.029999997,-12277.89,6716.42,9132.0,23.7,47.29,0.0,23.4,47.49,76.76
452,0.031,-12169.89,6712.42,9064.0,23.87,47.19,0.0,23.42,47.5,76.72
453,0.029999997,-12361.89,6788.42,9108.0,23.85,47.43,0.0,23.43,47.49,76.73
454,0.028999997,-12097.89,6612.42,9020.0,23.67,47.26,0.0,23.43,47.48,76.73
455,0.031,-12281.9,6664.41,9076.0,23.58,47.49,0.0,23.46,47.47,76.73
456,0.029999997,-12185.9,6672.41,9008.0,23.77,47.4,0.0,23.5,47.43,76.77
457,0.029999997,-12205.91,6624.41,9120.0,23.5,47.29,0.0,23.51,47.4,76.8
458,0.029999997,-12189.91,6656.47,8936.0,23.77,47.58,0.0,23.08,47.38,76.93
459,0.031,-12293.91,6728.52,8752.0,24.03,48.09,0.0,22.7,47.4,77.03
460,0.028999997,-12197.92,6632.57,9132.0,23.53,47.23,0.0,22.4,47.32,77.18
461,0.031,-12225.93,6648.57,9220.0,23.47,47.09,0.0,22.4,47.27,77.25
462,0.029999997,-11929.92,6512.57,9064.0,23.5,46.92,0.0,22.39,47.31,77.2
463,0.031,-12233.92,6740.55,9600.0,23.44,46.21,0.0,22.5,47.31,77.18
464,0.028999997,-12217.91,6672.55,8996.0,23.74,47.5,0.0,22.55,47.36,77.13
465,0.029999997,-12385.91,6684.6,9196.0,23.43,47.46,0.0,22.21,47.36,77.22
466,0.031,-12025.92,6644.6,9480.0,23.46,46.1,0.0,22.18,47.32,77.2
467,0.028999997,-12293.94,6552.67,8780.0,23.45,48.3,0.0,21.71,47.19,77.09
468,0.031,-12097.96,6548.72,9312.0,23.22,46.75,0.0,21.38,47.06,77.03
469,0.029999997,-12245.97,6484.72,9852.0,22.42,46.09,0.0,21.37,46.98,76.93
470,0.031,-12194.0,6500.78,9028.0,23.2,47.63,0.0,20.92,46.81,76.69
471,0.028999997,-12326.01,6104.8,10004.0,21.04,46.45,0.0,20.82,46.71,76.63
472,0.031,-12250.0,6320.79,9672.0,22.05,46.68,0.0,20.88,46.77,76.53
473,0.029999997,-12158.0,6352.78,9296.0,22.55,47.21,0.0,20.92,46.78,76.51
474,0.029999997,-12226.0,6296.77,9424.0,22.2,47.18,0.0,21.01,46.78,76.5
475,0.029999997,-12378.0,6428.76,9544.0,22.36,47.1,0.0,21.07,46.79,76.42
476,0.031,-12158.0,6132.76,9736.0,21.5,46.59,0.0,21.11,46.76,76.35
477,0.028999997,-12214.0,6212.74,9376.0,21.98,47.37,0.0,21.24,46.76,76.23
478,0.031,-12054.01,6036.71,9768.0,21.27,46.4,0.0,21.4,46.7,76.21
479,0.029999997,-12234.01,6216.72,9480.0,21.89,47.19,0.0,21.38,46.74,76.12
480,0.029999997,-12286.03,6236.71,9648.0,21.77,46.93,0.0,21.4,46.61,76.03
481,0.029999997,-11850.04,5992.66,9540.0,21.51,46.46,0.0,21.79,46.54,76.0
482,0.029999997,-12386.03,6344.61,9468.0,22.15,47.39,0.0,22.1,46.59,75.9
483,0.031,-12194.04,6444.56,9508.0,22.63,46.72,0.0,22.42,46.51,75.99
484,0.028999997,-12062.02,6216.51,9516.0,22.03,46.71,0.0,22.82,46.63,75.99
485,0.031,-12438.03,6652.46,9464.0,23.06,47.08,0.0,23.13,46.6,75.95
486,0.029999997,-12110.03,6336.42,9392.0,22.47,46.92,0.0,23.4,46.58,75.9
487,0.031,-12274.02,6336.29,9504.0,22.21,47.07,0.0,24.31,46.63,75.76
488,0.028999997,-12353.99,6496.16,9180.0,22.89,47.7,0.0,25.19,46.83,75.56
489,0.031,-12526.05,8580.14,9940.0,28.22,43.66,0.0,25.32,46.47,75.36
490,0.029999997,-12062.04,6692.05,9020.0,23.96,47.05,0.0,25.97,46.52,75.23
491,0.028999997,-12526.04,6536.0,8920.0,23.03,48.57,0.0,26.29,46.54,75.11
492,0.031,-12250.06,6759.91,9540.0,23.53,46.34,0.0,26.88,46.42,74.96
493,0.029999997,-12490.08,7227.77,9048.0,25.12,47.17,0.0,27.89,46.23,74.54
494,0.031,-12438.08,6759.65,8492.0,24.18,48.9,0.0,28.69,46.27,74.21
495,0.028999997,-12258.07,6823.58,8632.0,24.48,48.09,0.0,29.18,46.3,74.13
496,0.031,-12262.05,6899.54,8156.0,25.11,48.94,0.0,29.44,46.45,73.95
497,0.029999997,-12370.05,6891.56,8556.0,24.62,48.4,0.0,29.35,46.48,74.03
498,0.029999997,-12602.05,7107.55,8632.0,24.96,48.42,0.0,29.41,46.47,74.08
499,0.029999997,-12342.08,7111.5,9016.0,24.96,47.07,0.0,29.71,46.23,74.04
500,0.031,-11978.14,7255.39,8372.0,26.41,47.24,0.0,30.51,45.88,73.92
501,0.028999997,-12250.13,7099.35,8344.0,25.6,48.2,0.0,30.77,45.95,73.72
502,0.029999997,-12442.13,7235.37,8496.0,25.66,48.12,0.0,30.62,45.93,73.74
503,0.031,-12034.13,7211.42,8544.0,26.05,47.11,0.0,30.27,45.92,73.71
504,0.029999997,-12146.14,7215.47,8460.0,25.99,47.53,0.0,29.94,45.87,73.49
505,0.029999997,-12078.16,7143.47,8044.0,26.22,48.31,0.0,29.95,45.72,73.12
506,0.029999997,-12326.18,7055.48,8764.0,25.02,47.62,0.0,29.85,45.61,72.84
507,0.031,-12458.16,6739.48,9008.0,23.68,47.92,0.0,29.84,45.71,72.66
508,0.028999997,-12482.15,6811.49,8600.0,24.2,48.69,0.0,29.83,45.83,72.45
509,0.031,-12262.15,6755.52,8392.0,24.46,48.7,0.0,29.58,45.82,72.36
510,0.029999997,-12230.19,7003.55,8856.0,24.89,47.29,0.0,29.4,45.51,72.31
511,0.031,-12470.24,7159.6,9012.0,24.96,47.3,0.0,29.02,45.24,72.39
512,0.028999997,-12238.27,7039.64,8912.0,24.94,47.15,0.0,28.78,45.02,72.32
513,0.029999997,-12182.28,6847.67,8908.0,24.41,47.32,0.0,28.56,44.93,72.32
514,0.031,-12190.29,6995.7,9056.0,24.74,46.82,0.0,28.33,44.86,72.26
515,0.028999997,-12186.31,6803.74,9100.0,24.11,47.01,0.0,28.11,44.75,72.16
516,0.031,-12014.38,6867.79,8860.0,24.71,46.99,0.0,27.76,44.31,72.03
517,0.029999997,-12262.43,6671.87,9296.0,23.45,46.99,0.0,27.2,43.92,72.05
518,0.029999997,-11838.47,6347.96,9316.0,22.86,46.41,0.0,26.55,43.71,72.11
519,0.029999997,-11898.49,6520.02,9460.0,23.22,46.01,0.0,26.13,43.55,72.13
520,0.031,-11990.52,6732.05,9624.0,23.65,45.6,0.0,25.93,43.38,72.06
521,0.029999997,-11814.54,6580.09,9696.0,23.3,45.24,0.0,25.68,43.23,72.02
522,0.029999997,-13450.46,2228.62,-1612.0,9.35,78.44,0.0,22.07,43.78,72.96
523,0.029999997,-11374.53,6460.77,10364.0,22.78,42.97,0.0,21.04,43.31,73.19
524,0.031,-11646.66,6248.97,10848.0,21.44,42.94,0.0,19.65,42.41,73.19
525,0.028999997,-11494.73,5753.08,10792.0,20.05,43.24,0.0,18.91,41.96,73.15
526,0.031,-11514.76,5789.07,10748.0,20.18,43.34,0.0,18.93,41.78,73.1
527,0.031,-11234.81,5793.09,11516.0,19.81,41.08,0.0,18.84,41.45,73.09
528,0.029999997,-11014.88,5949.1,11488.0,20.5,40.42,0.0,18.74,40.98,72.95
529,0.029999997,-11298.94,5741.13,11400.0,19.69,41.53,0.0,18.54,40.58,72.88
530,0.031,-11079.0,5689.14,11348.0,19.74,41.12,0.0,18.48,40.22,72.75
531,0.031,-11183.05,5677.15,11816.0,19.24,40.48,0.0,18.41,39.87,72.57
532,0.028999997,-10791.11,5489.16,12064.0,18.74,39.16,0.0,18.31,39.49,72.46
533,0.031,-10935.16,5541.18,11848.0,18.97,39.91,0.0,18.2,39.12,72.32
534,0.031,-10919.22,5429.24,12140.0,18.4,39.4,0.0,17.81,38.72,72.36
535,0.029999997,-10615.26,5433.3,11992.0,18.75,38.89,0.0,17.37,38.47,72.44
536,0.029999997,-10551.3,5229.34,12192.0,17.97,38.51,0.0,17.13,38.21,72.47
537,0.031,-10711.37,5317.37,12312.0,18.05,38.62,0.0,16.92,37.8,72.44
538,0.031,-10675.45,5197.42,12484.0,17.56,38.3,0.0,16.57,37.24,72.42
539,0.028999997,-10227.55,5165.47,12572.0,17.68,36.97,0.0,16.2,36.6,72.35
540,0.031,-10243.67,4901.56,12852.0,16.61,36.69,0.0,15.61,35.77,72.31
541,0.031,-10207.75,4929.6,12864.0,16.71,36.55,0.0,15.34,35.28,72.31
542,0.029999997,-9831.86,4825.64,13060.0,16.45,35.24,0.0,15.07,34.57,72.24
543,0.029999997,-9895.96,4873.67,13060.0,16.57,35.38,0.0,14.86,33.85,72.1
544,0.029999997,-9828.08,4637.72,13500.0,15.53,34.56,0.0,14.47,33.08,71.89
545,0.031,-9560.2,4521.79,13644.0,15.19,33.64,0.0,13.99,32.33,71.77
546,0.028999997,-9480.32,4413.86,14024.0,14.62,32.82,0.0,13.54,31.53,71.71
547,0.031,-9060.42,4341.89,13768.0,14.76,32.12,0.0,13.29,30.88,71.59
548,0.029999997,-8772.53,4273.94,14296.0,14.3,30.46,0.0,13.0,30.11,71.71
549,0.031,-8912.62,4217.98,14388.0,14.0,30.74,0.0,12.68,29.53,71.93
550,0.028999997,-8660.72,4078.04,14596.0,13.52,29.76,0.0,12.28,28.9,72.05
551,0.029999997,-8712.8,4066.1,14472.0,13.54,30.11,0.0,11.91,28.37,72.28
552,0.031,-8336.87,4002.14,14944.0,13.17,28.33,0.0,11.58,27.91,72.52
553,0.028999997,-8456.97,3910.17,15160.0,12.7,28.38,0.0,11.42,27.23,72.6
554,0.031,-8297.03,4102.17,14720.0,13.65,28.51,0.0,11.37,26.83,72.89
555,0.029999997,-7761.13,3870.18,15096.0,12.85,26.48,0.0,11.3,26.17,72.99
556,0.029999997,-7829.18,3954.19,15008.0,13.15,26.78,0.0,11.23,25.86,73.23
557,0.029999997,-7945.21,3978.22,15324.0,12.98,26.66,0.0,11.06,25.65,73.56
558,0.031,-7589.28,3774.25,15208.0,12.52,25.85,0.0,10.86,25.18,73.89
559,0.029999997,-7673.35,3838.27,15484.0,12.53,25.7,0.0,10.68,24.71,74.13
560,0.029999997,-7217.41,3750.29,15348.0,12.47,24.56,0.0,10.59,24.33,74.27
561,0.029999997,-7469.5,3854.3,15900.0,12.38,24.55,0.0,10.52,23.72,74.09
562,0.029999997,-7057.55,3742.3,15536.0,12.37,23.83,0.0,10.48,23.45,74.22
563,0.029999997,-7489.6,3726.32,15752.0,12.06,24.84,0.0,10.35,23.07,74.27
564,0.029999997,-7209.8,3706.37,16740.0,11.5,22.81,0.0,10.0,21.78,74.06
565,0.031,-6285.96,3418.4,15736.0,11.41,21.33,0.0,9.85,20.71,74.03
566,0.029999997,-6406.1,3366.4,16680.0,10.67,20.64,0.0,9.8,19.77,73.9
567,0.028999997,-5990.26,3550.42,16028.0,11.73,20.05,0.0,9.7,18.77,74.01
568,0.029999997,-5854.44,3358.42,16632.0,10.79,19.04,0.0,9.65,17.58,74.07
569,0.031,-5206.64,3454.4,16456.0,11.32,17.21,0.0,9.79,16.27,74.25
570,0.028999997,-4870.7,3462.38,16536.0,11.36,16.09,0.0,9.96,15.82,74.58
571,0.029999997,-4986.84,3594.34,16936.0,11.51,16.07,0.0,10.21,14.94,74.69
572,0.029999997,-4722.95,3630.32,16816.0,11.75,15.35,0.0,10.4,14.22,74.94
573,0.029999997,-4687.12,3666.25,17196.0,11.63,14.93,0.0,10.82,13.08,75.2
574,0.029999997,-4231.31,3462.22,16468.0,11.52,14.12,0.0,11.05,11.86,75.79
575,0.031,-3675.42,3874.2,17196.0,12.43,11.78,0.0,11.2,11.1,76.21
576,0.031,-3663.69,4066.22,17648.0,12.72,11.44,0.0,11.06,9.33,76.34
577,0.028999997,-2983.94,3866.21,16884.0,12.71,9.77,0.0,11.13,7.68,76.57
578,0.029999997,-2344.1,3870.21,17468.0,12.39,7.46,0.0,11.09,6.67,76.97
579,0.031,-2424.21,3946.23,17420.0,12.65,7.73,0.0,10.95,5.92,77.43
580,0.028999997,-2188.36,4086.23,17124.0,13.32,7.08,0.0,10.99,4.92,77.76
581,0.029999997,-1816.42,3630.21,17568.0,11.62,5.78,0.0,11.14,4.56,78.23
582,0.029999997,-1508.55,4054.21,17672.0,12.88,4.75,0.0,11.1,3.67,78.75
583,0.028999997,-1484.72,3930.25,18056.0,12.25,4.59,0.0,10.83,2.53,79.08
584,0.031,-1220.86,3858.28,17944.0,12.11,3.8,0.0,10.66,1.61,79.4
585,0.029999997,-693.01,3762.32,17692.0,12.0,2.19,0.0,10.34,0.64,79.61
586,0.029999997,42.72,3558.39,17960.0,11.21,-0.14,0.0,9.9,-1.15,79.83
587,0.027999999,146.45,3306.41,16624.0,11.25,-0.5,0.0,9.78,-2.93,80.19
588,0.029999997,958.28,3418.4,17752.0,10.89,-3.04,0.0,9.8,-4.04,80.57
589,0.029999997,1150.09,3342.4,17964.0,10.52,-3.61,0.0,9.82,-5.27,80.89
590,0.029999997,1477.92,3282.42,18136.0,10.23,-4.59,0.0,9.67,-6.42,81.37
591,0.029999997,1685.74,3586.44,17508.0,11.53,-5.4,0.0,9.53,-7.57,81.66
592,0.029999997,2453.58,3306.45,17652.0,10.52,-7.79,0.0,9.45,-8.65,81.88
593,0.028999997,2417.48,3382.46,17584.0,10.79,-7.7,0.0,9.43,-9.27,81.9
594,0.029999997,2609.36,3302.47,17928.0,10.34,-8.15,0.0,9.33,-10.06,81.96
595,0.031,2901.16,3254.51,18032.0,10.11,-9.01,0.0,9.09,-11.4,82.12
596,0.029999997,3536.9,3258.56,17956.0,10.1,-10.98,0.0,8.7,-13.09,82.51
597,0.029999997,3856.61,3010.62,17824.0,9.38,-12.05,0.0,8.29,-15.05,82.91
598,0.029999997,4748.3,2730.7,17364.0,8.63,-15.13,0.0,7.74,-17.05,83.36
599,0.031,5043.99,2534.78,17232.0,8.04,-16.16,0.0,7.19,-19.07,83.91
600,0.028999997,5775.72,2362.84,17644.0,7.26,-17.99,0.0,6.81,-20.85,84.34
601,0.031,6183.47,2126.92,16480.0,6.89,-20.43,0.0,6.24,-22.51,84.82
602,0.029999997,6783.3,1962.98,16748.0,6.2,-21.93,0.0,5.83,-23.62,85.16
603,0.031,7007.16,2011.04,16560.0,6.38,-22.8,0.0,5.43,-24.54,85.45
604,0.028999997,7307.06,1827.07,16616.0,5.75,-23.63,0.0,5.2,-25.24,85.68
605,0.031,7646.94,1655.09,16492.0,5.2,-24.78,0.0,5.09,-26.04,85.89
606,0.029999997,7462.87,1527.11,16340.0,4.86,-24.47,0.0,4.92,-26.48,86.05
607,0.028999997,7614.81,1515.13,16288.0,4.82,-24.98,0.0,4.78,-26.87,86.19
608,0.031,7722.73,1423.16,16848.0,4.39,-24.56,0.0,4.6,-27.41,86.3
609,0.029999997,8370.54,1275.24,16320.0,3.98,-27.1,0.0,4.06,-28.67,86.54
610,0.029999997,8314.37,1223.29,15992.0,3.88,-27.42,0.0,3.67,-29.73,86.71
611,0.029999997,8710.24,1103.32,15800.0,3.5,-28.82,0.0,3.5,-30.64,86.8
612,0.031,8962.12,1107.34,15856.0,3.48,-29.43,0.0,3.36,-31.39,86.88
613,0.029999997,9321.97,911.39,15748.0,2.85,-30.6,0.0,3.05,-32.36,87.06
614,0.028999997,9545.84,959.42,15420.0,3.03,-31.73,0.0,2.78,-33.28,87.26
615,0.031,9641.73,871.45,15172.0,2.78,-32.41,0.0,2.62,-33.98,87.41
616,0.029999997,9917.62,999.47,15668.0,3.09,-32.3,0.0,2.49,-34.73,87.61
617,0.028999997,10185.43,439.53,14816.0,1.4,-34.51,0.0,2.08,-35.93,87.89
618,0.029999997,10517.27,299.58,14848.0,0.94,-35.32,0.0,1.72,-37.0,88.09
619,0.031,10617.16,347.6,14428.0,1.11,-36.36,0.0,1.58,-37.73,88.19
620,0.029999997,10561.01,479.65,14600.0,1.53,-35.88,0.0,1.22,-38.68,88.42
621,0.029999997,11156.85,159.69,14468.0,0.5,-37.65,0.0,0.92,-39.77,88.69
622,0.029999997,11340.7,3.74,13900.0,0.01,-39.23,0.0,0.58,-40.78,88.86
623,0.029999997,11480.53,79.81,14952.0,0.24,-37.54,0.0,0.14,-41.85,89.04
624,0.028999997,11852.31,-88.11,13528.0,-0.28,-41.24,0.0,-0.4,-43.32,89.26
625,0.031,12368.13,-344.08,12832.0,-1.11,-43.95,0.0,-0.61,-44.48,89.33
626,0.032,12284.02,-216.07,13092.0,-0.69,-43.19,0.0,-0.72,-45.24,89.37
627,0.031,12139.9,-172.02,12672.0,-0.56,-43.79,0.0,-1.02,-46.01,89.55
628,0.029999997,12607.77,-375.98,12424.0,-1.22,-45.43,0.0,-1.28,-46.87,89.67
629,0.031,13067.6,-663.92,13132.0,-2.05,-44.84,0.0,-1.74,-47.97,89.91
630,0.031,13247.43,-751.86,12180.0,-2.39,-47.37,0.0,-2.16,-49.09,90.16
631,0.031,13167.27,-619.81,12088.0,-1.99,-47.43,0.0,-2.45,-50.19,90.41
632,0.031,13535.11,-1027.77,11168.0,-3.35,-50.37,0.0,-2.76,-51.23,90.65
633,0.031,13718.99,-1095.74,11720.0,-3.47,-49.39,0.0,-2.98,-51.99,90.8
634,0.032,13958.8,-1287.67,11412.0,-4.08,-50.57,0.0,-3.43,-53.23,91.02
635,0.029999997,13930.64,-983.63,11308.0,-3.14,-50.85,0.0,-3.71,-54.31,91.19
636,0.032,13982.41,-1099.61,10524.0,-3.6,-52.9,0.0,-3.85,-55.8,91.31
637,0.031,14582.22,-1447.56,9856.0,-4.7,-55.68,0.0,-4.19,-57.08,91.31
638,0.029999997,14786.0,-1251.5,9896.0,-4.02,-56.01,0.0,-4.59,-58.53,91.34
639,0.031,14741.81,-1243.47,9128.0,-4.1,-58.02,0.0,-4.81,-59.8,91.31
640,0.032,15093.62,-1339.44,9276.0,-4.32,-58.18,0.0,-5.0,-61.03,91.33
641,0.031,15361.41,-1403.42,8372.0,-4.59,-61.09,0.0,-5.18,-62.38,91.48
642,0.029999997,15481.28,-1615.41,7884.0,-5.31,-62.55,0.0,-5.19,-63.29,91.55
643,0.031,15813.16,-1675.42,7840.0,-5.42,-63.13,0.0,-5.17,-64.03,91.62
644,0.031,15777.05,-1599.41,8132.0,-5.15,-62.3,0.0,-5.25,-64.76,91.66
645,0.032,15460.89,-1851.36,7060.0,-6.21,-64.74,0.0,-5.55,-65.8,91.8
646,0.029999997,15728.79,-1843.35,6948.0,-6.12,-65.45,0.0,-5.67,-66.48,91.79
647,0.031,15860.7,-1951.32,6748.0,-6.46,-66.13,0.0,-5.81,-67.06,91.72
648,0.031,15968.59,-1631.29,7348.0,-5.3,-64.78,0.0,-6.03,-67.82,91.64
649,0.031,16048.42,-1523.27,6628.0,-5.01,-67.05,0.0,-6.2,-68.9,91.69
650,0.031,15932.24,-1647.23,6724.0,-5.44,-66.53,0.0,-6.45,-70.11,91.75
651,0.031,16168.04,-1883.2,5664.0,-6.27,-69.75,0.0,-6.63,-71.44,91.71
652,0.031,16287.87,-1519.19,5476.0,-5.05,-70.78,0.0,-6.74,-72.53,91.64
653,0.029999997,16343.69,-1487.17,5396.0,-4.94,-71.11,0.0,-6.9,-73.75,91.74
654,0.032,16291.5,-1763.15,4516.0,-5.95,-73.44,0.0,-7.03,-74.97,91.79
655,0.031,16307.37,-1743.15,4032.0,-5.92,-74.93,0.0,-6.98,-75.87,91.75
656,0.031,16319.25,-1575.17,4188.0,-5.34,-74.68,0.0,-6.89,-76.61,91.67
657,0.029999997,16399.16,-1779.17,3372.0,-6.06,-76.92,0.0,-6.85,-77.22,91.53
658,0.031,16583.11,-1723.18,3972.0,-5.77,-75.38,0.0,-6.78,-77.52,91.32
659,0.032,16643.03,-1551.18,3744.0,-5.19,-76.32,0.0,-6.78,-78.06,91.17
660,0.029999997,16642.94,-1571.19,3284.0,-5.29,-77.67,0.0,-6.75,-78.67,91.03
661,0.031,17102.83,-1587.21,3640.0,-5.19,-76.94,0.0,-6.63,-79.41,90.97
662,0.031,16734.66,-1543.18,3092.0,-5.18,-78.34,0.0,-6.78,-80.48,91.04
663,0.032,16706.49,-1527.19,2172.0,-5.18,-80.98,0.0,-6.72,-81.64,90.97
664,0.029999997,16654.39,-1571.19,2480.0,-5.33,-80.01,0.0,-6.76,-82.31,90.93
665,0.031,17058.27,-1627.21,2428.0,-5.39,-80.28,0.0,-6.61,-83.05,90.89
666,0.031,16734.21,-1399.24,1868.0,-4.75,-82.07,0.0,-6.42,-83.5,90.76
667,0.031,16658.14,-1631.25,1808.0,-5.56,-81.69,0.0,-6.34,-83.91,90.61
668,0.031,16854.09,-1519.25,1444.0,-5.13,-82.92,0.0,-6.3,-84.29,90.45
669,0.031,16854.06,-1307.28,1664.0,-4.41,-82.85,0.0,-6.13,-84.48,90.33
670,0.031,16690.06,-1383.32,1384.0,-4.72,-83.32,0.0,-5.84,-84.46,90.2
671,0.029999997,16786.09,-1227.36,1296.0,-4.17,-83.93,0.0,-5.54,-84.26,90.08
672,0.031,16698.13,-1471.4,1300.0,-5.02,-83.3,0.0,-5.33,-84.0,90.01
673,0.032,16790.23,-1419.46,1620.0,-4.81,-82.69,0.0,-4.89,-83.33,89.84
674,0.031,16870.33,-1455.51,1964.0,-4.9,-81.76,0.0,-4.51,-82.7,89.72
675,0.029999997,16806.45,-1215.57,2368.0,-4.09,-81.01,0.0,-4.14,-81.9,89.53
676,0.031,16450.59,-1103.61,2536.0,-3.79,-80.46,0.0,-3.85,-80.98,89.29
677,0.032,16830.66,-907.62,2856.0,-3.04,-79.91,0.0,-3.8,-80.49,89.2
678,0.031,16830.76,-807.65,2612.0,-2.71,-80.78,0.0,-3.58,-79.83,89.15
679,0.028999997,16950.86,-999.69,2916.0,-3.32,-79.7,0.0,-3.33,-79.18,89.1
680,0.031,16530.98,-899.74,3068.0,-3.06,-79.06,0.0,-2.93,-78.44,89.06
681,0.031,16407.24,-276.03,4824.0,-0.92,-73.6,0.0,-0.98,-76.72,88.68
682,0.029999997,14567.45,-1944.1,4032.0,-7.32,-72.93,0.0,-0.46,-75.34,88.63
683,0.032,16295.67,-1428.16,3268.0,-4.91,-77.66,0.0,-0.1,-73.87,88.58
684,0.031,16563.92,-1072.24,4412.0,-3.58,-74.68,0.0,0.48,-72.21,88.3
685,0.031,16804.06,-980.27,5216.0,-3.19,-72.48,0.0,0.65,-71.31,88.03
686,0.028999997,16432.18,-600.29,5272.0,-1.99,-72.12,0.0,0.79,-70.49,87.71
687,0.031,16404.33,-196.31,5940.0,-0.64,-70.1,0.0,0.96,-69.56,87.42
688,0.031,15996.46,-136.33,5984.0,-0.46,-69.5,0.0,1.12,-68.65,87.1
689,0.029999997,16084.59,123.63,6316.0,0.41,-68.57,0.0,1.37,-67.82,86.77
690,0.029999997,16160.7,-144.38,6632.0,-0.47,-67.7,0.0,1.47,-67.07,86.55
691,0.031,16236.79,107.6,6728.0,0.35,-67.5,0.0,1.61,-66.51,86.36
692,0.029999997,15992.89,11.61,6544.0,0.04,-67.76,0.0,1.5,-65.8,86.2
693,0.028999997,15673.05,335.56,6824.0,1.13,-66.46,0.0,1.87,-64.78,85.88
694,0.029999997,15929.21,91.52,7300.0,0.3,-65.39,0.0,2.1,-63.7,85.56
695,0.029999997,15761.36,395.5,7844.0,1.29,-63.53,0.0,2.29,-62.73,85.29
696,0.028999997,15681.46,639.49,8392.0,2.06,-61.79,0.0,2.31,-62.1,85.12
697,0.029999997,15441.53,467.49,7988.0,1.54,-62.62,0.0,2.33,-61.6,84.96
698,0.029999997,15325.65,619.45,8156.0,2.04,-61.93,0.0,2.61,-60.86,84.67
699,0.029999997,15485.75,671.45,8608.0,2.17,-60.87,0.0,2.62,-60.16,84.5
700,0.029999997,15177.86,583.43,8392.0,1.93,-61.02,0.0,2.77,-59.43,84.22
701,0.029999997,15529.99,503.41,8860.0,1.61,-60.27,0.0,2.85,-58.58,84.24
702,0.029999997,15006.18,1015.34,9168.0,3.31,-58.44,0.0,3.33,-57.35,83.95
703,0.029999997,14822.31,1187.31,9200.0,3.89,-57.98,0.0,3.6,-56.5,83.58
704,0.029999997,14306.49,1347.23,9012.0,4.56,-57.52,0.0,4.1,-55.33,83.21
705,0.031,14458.66,1391.18,10052.0,4.52,-54.95,0.0,4.45,-54.17,82.83
706,0.028999997,14026.88,1603.08,10044.0,5.31,-54.07,0.0,5.17,-52.75,82.44
707,0.031,14363.13,1814.96,10652.0,5.8,-53.06,0.0,5.98,-51.09,81.97
708,0.031,13831.38,2194.83,11352.0,6.99,-50.12,0.0,6.89,-49.42,81.49
709,0.028999997,13695.6,2454.67,11812.0,7.73,-48.64,0.0,7.94,-48.0,80.76
710,0.031,13219.91,2630.53,11628.0,8.5,-47.97,0.0,8.96,-45.97,80.05
711,0.031,12744.09,3430.38,12516.0,10.87,-44.5,0.0,9.95,-44.8,79.32
712,0.031,12608.36,3430.19,12372.0,10.99,-44.5,0.0,11.22,-43.01,78.43
713,0.029999997,11972.57,3994.03,12664.0,12.91,-42.06,0.0,12.34,-41.64,77.75
714,0.031,12140.73,3969.91,12716.0,12.73,-42.36,0.0,13.16,-40.58,77.21
715,0.031,11804.9,4113.76,12856.0,13.27,-41.19,0.0,14.18,-39.41,76.64
716,0.032,11521.07,4585.64,12972.0,14.81,-39.96,0.0,15.03,-38.35,76.08
717,0.029999997,11061.22,5037.54,13340.0,16.21,-37.82,0.0,15.71,-37.32,75.67
718,0.031,10901.36,5285.43,13380.0,17.03,-37.17,0.0,16.49,-36.42,75.21
719,0.031,10601.47,5305.35,13256.0,17.36,-36.61,0.0,17.0,-35.67,74.85
720,0.029999997,10473.66,5609.24,13500.0,18.18,-35.63,0.0,17.77,-34.43,74.47
721,0.032,10457.75,5597.18,13612.0,18.06,-35.41,0.0,18.2,-33.88,74.08
722,0.031,9833.91,6053.07,13672.0,19.77,-33.35,0.0,18.93,-32.79,73.72
723,0.031,9314.05,6324.99,13724.0,20.88,-31.66,0.0,19.51,-31.86,73.44
724,0.029999997,9466.19,6316.91,13936.0,20.56,-31.76,0.0,20.03,-30.93,73.16
725,0.031,9414.31,6376.85,13712.0,20.98,-31.92,0.0,20.47,-30.18,72.87
726,0.031,9098.43,6588.78,14076.0,21.47,-30.36,0.0,20.92,-29.39,72.6
727,0.029999997,8682.6,6744.7,14128.0,22.14,-29.03,0.0,21.47,-28.26,72.41
728,0.031,8462.72,6804.64,14160.0,22.42,-28.32,0.0,21.88,-27.46,72.22
729,0.031,8442.91,6996.56,14292.0,22.86,-27.96,0.0,22.45,-26.23,72.06
730,0.031,7963.08,7152.49,14856.0,23.0,-25.79,0.0,22.96,-25.08,71.9
731,0.029999997,7859.21,7236.44,14656.0,23.52,-25.69,0.0,23.25,-24.24,71.84
732,0.031,7443.15,7376.46,14996.0,23.79,-24.02,0.0,23.16,-24.63,71.71
733,0.029999997,7711.18,7212.45,14088.0,24.19,-25.99,0.0,23.24,-24.42,71.71
734,0.029999997,7327.31,7496.42,15036.0,24.15,-23.57,0.0,23.44,-23.55,71.73
735,0.031,7239.43,7576.4,15240.0,24.19,-23.05,0.0,23.57,-22.77,71.78
736,0.031,7375.43,7232.42,15236.0,23.14,-23.63,0.0,23.42,-22.8,71.72
737,0.031,7291.55,7240.4,14668.0,23.85,-24.04,0.0,23.52,-21.96,71.78
738,0.029999997,6931.66,7424.4,15132.0,24.05,-22.37,0.0,23.54,-21.25,71.89
739,0.031,6999.62,7300.43,15240.0,23.53,-22.51,0.0,23.35,-21.56,71.86
740,0.031,6767.61,7376.45,14508.0,24.75,-22.59,0.0,23.18,-21.61,71.9
741,0.031,6783.74,7260.45,14716.0,24.14,-22.47,0.0,23.24,-20.75,72.03
742,0.029999997,6927.82,7148.44,14904.0,23.51,-22.75,0.0,23.31,-20.23,72.08
743,0.031,6611.9,7112.45,15440.0,22.96,-21.26,0.0,23.23,-19.72,72.09
744,0.031,6563.95,7112.44,14824.0,23.7,-21.77,0.0,23.24,-19.36,72.02
745,0.029999997,6508.0,7136.43,15156.0,23.4,-21.24,0.0,23.37,-19.03,71.9
746,0.031,6080.02,7352.41,15328.0,24.04,-19.69,0.0,23.48,-18.87,71.73
747,0.031,5900.08,7512.38,15432.0,24.46,-18.98,0.0,23.68,-18.53,71.58
748,0.031,5844.13,7336.35,15244.0,24.21,-19.07,0.0,23.89,-18.15,71.41
749,0.029999997,6168.2,7256.31,14880.0,24.26,-20.44,0.0,24.17,-17.71,71.34
750,0.031,5664.3,7656.26,15224.0,25.25,-18.4,0.0,24.53,-17.05,71.27
751,0.031,5840.44,7616.2,15376.0,24.86,-18.81,0.0,24.96,-16.15,71.14
752,0.029999997,5384.5,7700.16,15728.0,24.86,-17.1,0.0,25.2,-15.74,71.06
753,0.031,5288.67,7880.1,15360.0,25.89,-17.04,0.0,25.61,-14.63,71.05
754,0.031,5040.74,7852.08,15796.0,25.35,-15.96,0.0,25.76,-14.14,70.99
755,0.031,4852.89,8088.06,15416.0,26.6,-15.58,0.0,25.87,-13.2,70.96
756,0.029999997,4341.01,8012.05,15816.0,26.05,-13.77,0.0,25.96,-12.4,70.84
757,0.031,4037.21,8012.05,15752.0,26.24,-12.88,0.0,25.94,-11.05,70.84
758,0.029999997,4117.44,7852.06,15268.0,26.42,-13.49,0.0,25.87,-9.54,70.75
759,0.029999997,3465.59,8052.04,16016.0,26.18,-10.95,0.0,26.04,-8.59,70.62
760,0.031,3149.77,7948.03,16124.0,25.83,-9.94,0.0,26.11,-7.41,70.51
761,0.029999997,2617.95,8096.04,16348.0,26.07,-8.17,0.0,26.01,-6.18,70.29
762,0.031,2830.14,8056.04,15872.0,26.56,-9.04,0.0,26.0,-4.95,70.01
763,0.028999997,2318.26,7980.03,16060.0,26.2,-7.37,0.0,26.12,-4.12,69.86
764,0.031,1970.38,7892.01,15700.0,26.52,-6.4,0.0,26.25,-3.39,69.67
765,0.029999997,1754.46,8251.98,15944.0,27.23,-5.59,0.0,26.41,-2.86,69.58
766,0.029999997,1566.63,8411.97,15868.0,27.83,-4.99,0.0,26.5,-1.73,69.68
767,0.029999997,1114.79,8007.94,15904.0,26.68,-3.59,0.0,26.68,-0.65,69.68
768,0.031,890.89,8263.94,16120.0,27.12,-2.82,0.0,26.74,-0.03,69.54
769,0.029999997,695.0,8247.93,15656.0,27.77,-2.25,0.0,26.77,0.69,69.37
770,0.028999997,463.22,8223.97,16020.0,27.18,-1.48,0.0,26.52,2.16,69.16
771,0.029999997,515.45,8316.06,16496.0,26.75,-1.6,0.0,25.91,3.69,68.91
772,0.029999997,-48.35,7608.13,15896.0,25.59,0.16,0.0,25.42,4.97,68.72
773,0.027999999,-428.25,7532.17,15804.0,25.49,1.4,0.0,25.11,5.65,68.57
774,0.029999997,-1100.12,7752.2,16188.0,25.55,3.51,0.0,24.91,6.52,68.64
775,0.029999997,-1443.99,7920.22,16068.0,26.16,4.61,0.0,24.78,7.35,68.66
776,0.029999997,-1239.88,7724.26,15748.0,26.07,4.04,0.0,24.53,8.09,68.68
777,0.029999997,-1335.82,7236.29,15772.0,24.58,4.4,0.0,24.32,8.48,68.64
778,0.029999997,-2219.79,7704.31,16080.0,25.4,7.1,0.0,24.19,8.66,68.57
779,0.029999997,-2147.76,7584.35,16292.0,24.79,6.82,0.0,23.89,8.9,68.3
780,0.028999997,-2075.64,7392.4,15976.0,24.66,6.73,0.0,23.53,9.64,68.17
781,0.031,-2347.55,6960.45,16176.0,23.08,7.59,0.0,23.17,10.25,68.03
782,0.029999997,-2811.47,6936.52,16232.0,22.84,9.05,0.0,22.75,10.76,67.94
783,0.029999997,-2679.41,7140.56,16128.0,23.6,8.64,0.0,22.47,11.2,67.75
784,0.029999997,-3391.23,6168.61,14628.0,22.34,12.06,0.0,22.13,12.33,67.71
785,0.031,-3299.17,6600.66,16804.0,21.09,10.36,0.0,21.75,12.76,67.67
786,0.028999997,-2795.1,6700.67,15888.0,22.57,9.21,0.0,21.69,13.19,67.8
787,0.029999997,-2811.08,6864.68,15960.0,22.97,9.19,0.0,21.64,13.35,67.75
788,0.031,-2507.03,6472.69,16200.0,21.56,8.18,0.0,21.57,13.67,67.82
789,0.029999997,-3806.94,6596.68,16300.0,21.52,12.22,0.0,21.6,14.26,67.77
790,0.028999997,-3918.89,6816.68,16156.0,22.3,12.6,0.0,21.63,14.61,67.68
791,0.031,-4314.81,6792.67,16340.0,21.91,13.71,0.0,21.69,15.13,67.85
792,0.029999997,-3850.77,6620.68,16112.0,21.79,12.47,0.0,21.66,15.4,67.85
793,0.029999997,-5070.65,6424.72,15692.0,21.29,16.65,0.0,21.38,16.21,67.7
794,0.029999997,-3298.59,6724.72,15680.0,22.78,10.95,0.0,21.34,16.54,67.75
795,0.029999997,-4774.52,6884.74,15960.0,22.46,15.36,0.0,21.24,17.05,67.8
796,0.031,-4766.37,6472.75,16012.0,21.19,15.43,0.0,21.13,18.05,67.79
797,0.028999997,-4634.23,6756.79,16300.0,21.75,14.72,0.0,20.85,18.94,67.56
798,0.031,-4814.13,6068.77,14512.0,21.66,17.02,0.0,21.0,19.6,67.25
799,0.029999997,-4666.14,6152.77,15300.0,21.05,15.8,0.0,21.02,19.53,67.32
800,0.029999997,-5138.13,6020.78,14748.0,21.09,17.88,0.0,20.95,19.62,67.21
801,0.029999997,-5150.13,6420.79,15952.0,20.97,16.68,0.0,20.88,19.58,67.35
802,0.031,-4998.07,6148.8,15596.0,20.59,16.61,0.0,20.77,20.03,67.44
803,0.028999997,-4346.06,5740.8,15304.0,19.85,14.9,0.0,20.82,20.03,67.48
804,0.031,-5370.02,6396.79,15408.0,21.42,17.85,0.0,20.9,20.36,67.47
805,0.029999997,-6457.9,6100.82,15196.0,20.29,21.53,0.0,20.67,21.14,67.23
806,0.029999997,-6177.82,6260.83,15516.0,20.56,20.27,0.0,20.6,21.65,67.14
807,0.029999997,-6329.75,6248.81,15148.0,20.85,21.13,0.0,20.76,22.07,66.82
808,0.029999997,-6201.78,6504.78,15364.0,21.44,20.4,0.0,20.94,21.94,66.83
809,0.031,-6189.73,6436.77,15244.0,21.38,20.51,0.0,21.0,22.24,66.88
810,0.028999997,-6097.65,6656.77,15048.0,22.3,20.34,0.0,20.98,22.73,66.88
811,0.031,-5285.54,5944.79,15244.0,20.24,17.91,0.0,20.87,23.46,66.78
812,0.029999997,-6517.52,6484.76,14856.0,21.8,21.91,0.0,21.11,23.65,66.56
813,0.031,-7025.36,6396.74,14220.0,21.97,24.26,0.0,21.25,24.7,66.52
814,0.028999997,-7353.07,5784.79,14496.0,19.6,25.23,0.0,20.89,26.6,66.25
815,0.029999997,-7724.99,6352.78,14088.0,21.58,26.57,0.0,20.93,27.11,66.13
816,0.031,-7600.94,6280.76,14340.0,21.16,25.9,0.0,21.11,27.45,65.6
817,0.028999997,-7416.89,6168.72,14448.0,20.81,25.28,0.0,21.35,27.78,65.12
818,0.031,-8256.7,5976.66,14564.0,19.65,27.68,0.0,21.73,29.0,64.17
819,0.029999997,-8184.6,6080.63,13480.0,21.09,28.97,0.0,22.0,29.64,63.37
820,0.029999997,-8572.54,5824.63,14156.0,19.4,29.26,0.0,21.95,30.08,63.01
821,0.029999997,-8504.44,6284.6,13816.0,21.18,29.27,0.0,22.19,30.72,62.48
822,0.031,-9464.27,6280.56,13848.0,20.54,31.91,0.0,22.45,31.83,61.94
823,0.029999997,-8852.27,5752.54,13668.0,19.46,30.84,0.0,22.61,31.81,61.73
824,0.029999997,-9632.28,6304.54,13240.0,21.07,33.31,0.0,22.6,31.78,61.56
825,0.029999997,-9272.0,5704.61,12844.0,19.81,33.42,0.0,22.09,33.61,61.64
826,0.029999997,-8267.66,5988.67,12968.0,21.28,30.07,0.0,21.67,35.86,61.41
827,0.029999997,-10147.34,5504.73,12272.0,19.08,37.04,0.0,21.31,37.93,60.73
828,0.031,-10407.25,5468.75,12568.0,18.54,37.22,0.0,21.17,38.55,60.34
829,0.029999997,-10627.07,6020.77,11716.0,20.84,38.91,0.0,21.01,39.72,60.39
830,0.031,-10650.99,5704.78,11656.0,19.87,39.39,0.0,20.94,40.29,60.33
831,0.029999997,-10810.85,5408.81,11680.0,18.78,40.04,0.0,20.74,41.22,60.25
832,0.029999997,-11102.79,5348.81,11728.0,18.33,40.75,0.0,20.72,41.55,60.05
833,0.031,-10698.6,5416.87,11628.0,18.93,39.84,0.0,20.33,42.84,60.02
834,0.029999997,-11874.44,5412.89,11096.0,18.43,43.9,0.0,20.18,43.91,59.78
835,0.031,-11746.36,5244.9,11368.0,17.79,43.19,0.0,20.09,44.43,59.63
836,0.029999997,-11758.29,5252.91,11272.0,17.88,43.41,0.0,20.05,44.86,59.49
837,0.031,-11798.18,5360.93,11324.0,18.16,43.29,0.0,19.89,45.62,59.4
838,0.029999997,-12122.07,5160.97,10780.0,17.65,45.42,0.0,19.67,46.3,59.29
839,0.029999997,-11717.95,5192.99,10828.0,18.03,44.31,0.0,19.49,47.1,59.18
840,0.031,-12637.84,5249.0,10268.0,17.87,47.63,0.0,19.41,47.82,58.88
841,0.029999997,-12177.76,5053.02,9880.0,17.87,47.67,0.0,19.31,48.38,58.59
842,0.029999997,-12401.64,4913.05,10032.0,17.12,48.0,0.0,19.06,49.15,58.51
843,0.031,-12861.52,4681.09,10020.0,16.02,49.32,0.0,18.78,49.92,58.29
844,0.031,-12529.35,4969.16,9316.0,17.66,49.89,0.0,18.34,51.06,58.13
845,0.028999997,-12721.32,4977.16,9224.0,17.58,50.53,0.0,18.3,51.26,57.94
846,0.031,-12629.17,4825.2,9316.0,17.09,50.29,0.0,18.03,52.27,57.82
847,0.029999997,-13437.04,4885.21,9120.0,16.75,52.42,0.0,17.97,53.09,57.53
848,0.029999997,-13424.89,4437.27,8868.0,15.42,53.56,0.0,17.61,54.06,57.39
849,0.029999997,-13496.85,4485.29,8496.0,15.71,54.57,0.0,17.42,54.38,57.24
850,0.029999997,-13260.75,4497.31,8356.0,16.01,54.42,0.0,17.28,55.05,57.12
851,0.029999997,-13372.67,4545.32,8356.0,16.08,54.59,0.0,17.23,55.56,56.93
852,0.029999997,-13928.52,4285.33,8124.0,14.89,56.61,0.0,17.13,56.55,56.71
853,0.031,-13516.46,4321.33,8220.0,15.28,55.52,0.0,17.2,56.9,56.53
854,0.029999997,-13676.4,4497.32,7816.0,15.94,56.61,0.0,17.26,57.33,56.36
855,0.029999997,-13796.26,4201.32,7656.0,14.91,57.68,0.0,17.21,58.24,56.31
856,0.029999997,-13756.18,4377.31,7828.0,15.46,56.91,0.0,17.27,58.77,56.1
857,0.031,-13876.05,4385.32,7344.0,15.61,58.36,0.0,17.22,59.59,55.81
858,0.028999997,-14231.98,3937.33,7320.0,13.82,59.72,0.0,17.13,60.06,55.61
859,0.029999997,-14203.9,4141.35,7052.0,14.64,60.08,0.0,17.05,60.59,55.51
860,0.031,-14511.76,3881.38,6496.0,13.72,62.47,0.0,16.84,61.55,55.43
861,0.029999997,-13955.6,4017.37,6832.0,14.5,60.42,0.0,16.89,62.56,55.29
862,0.029999997,-14683.49,3821.37,6376.0,13.43,63.16,0.0,16.89,63.33,54.93
863,0.029999997,-14519.41,3693.37,5756.0,13.31,64.79,0.0,16.9,63.86,54.64
864,0.031,-14579.28,3893.4,6160.0,13.82,63.45,0.0,16.65,64.68,54.41
865,0.028999997,-14687.13,3905.43,5108.0,14.1,66.36,0.0,16.44,65.67,54.07
866,0.031,-14895.0,3645.44,5272.0,12.99,66.72,0.0,16.44,66.5,53.61
867,0.029999997,-14966.86,3385.45,4724.0,12.17,68.79,0.0,16.34,67.47,53.14
868,0.031,-14830.69,3181.52,5192.0,11.45,67.69,0.0,15.89,68.59,52.9
869,0.028999997,-14694.55,3145.58,4564.0,11.56,69.34,0.0,15.43,69.47,52.76
870,0.029999997,-14726.49,3513.61,4412.0,12.88,69.05,0.0,15.23,69.9,52.69
871,0.031,-15066.39,3389.63,4172.0,12.23,70.37,0.0,15.09,70.56,52.47
872,0.028999997,-14870.3,2905.67,3776.0,10.73,72.24,0.0,14.84,71.17,52.34
873,0.031,-15282.17,3137.71,3524.0,11.31,72.85,0.0,14.52,71.97,52.12
874,0.029999997,-15350.06,3005.75,3736.0,10.77,72.66,0.0,14.29,72.75,51.76
875,0.029999997,-15170.0,3013.77,3412.0,10.97,73.3,0.0,14.15,73.14,51.48
876,0.029999997,-15185.91,2777.81,3064.0,10.17,74.77,0.0,13.87,73.73,51.22
877,0.031,-15489.92,2625.83,3180.0,9.43,75.1,0.0,13.7,73.65,51.06
878,0.029999997,-15297.95,2877.84,3108.0,10.45,74.53,0.0,13.68,73.42,50.97
879,0.028999997,-15309.97,2757.85,3292.0,9.99,74.34,0.0,13.56,73.33,50.89
880,0.031,-15294.01,2553.86,3224.0,9.28,74.95,0.0,13.55,73.03,50.81
881,0.029999997,-15494.09,2565.86,3492.0,9.18,74.38,0.0,13.52,72.5,50.75
882,0.028999997,-15250.2,2705.87,3984.0,9.74,72.48,0.0,13.44,71.8,50.73
883,0.029999997,-15130.34,2573.88,4132.0,9.32,72.17,0.0,13.35,70.9,50.72
884,0.029999997,-15142.43,2385.93,4596.0,8.58,71.13,0.0,13.03,70.25,50.83
885,0.028999997,-15354.58,2753.96,4476.0,9.77,71.11,0.0,12.83,69.27,50.77
886,0.031,-15350.76,2982.01,4380.0,10.58,70.96,0.0,12.48,68.11,50.47
887,0.029999997,-15182.87,2538.05,4832.0,9.05,70.24,0.0,12.22,67.39,50.49
888,0.029999997,-14987.09,2706.04,5140.0,9.69,68.82,0.0,12.28,65.94,50.56
889,0.029999997,-15123.36,2370.01,5984.0,8.29,66.96,0.0,12.48,64.13,50.73
890,0.029999997,-14983.63,2558.05,6548.0,8.89,64.88,0.0,12.24,62.4,50.84
891,0.029999997,-14479.84,2894.08,6756.0,10.27,63.1,0.0,12.02,61.0,51.15
892,0.028999997,-14608.03,2666.13,7336.0,9.27,61.89,0.0,11.65,59.73,51.43
893,0.031,-14556.26,3042.2,8000.0,10.38,59.56,0.0,11.21,58.24,51.69
894,0.029999997,-13832.49,3254.22,8148.0,11.46,57.63,0.0,11.05,56.72,51.63
895,0.031,-14064.65,2682.29,8036.0,9.4,58.95,0.0,10.59,55.7,51.61
896,0.028999997,-13888.8,2874.36,8724.0,9.94,56.53,0.0,10.07,54.67,51.58
897,0.029999997,-13540.96,2738.46,8700.0,9.66,56.05,0.0,9.37,53.63,51.66
898,0.029999997,-13377.13,2610.54,9788.0,8.95,52.88,0.0,8.87,52.5,51.61
899,0.028999997,-13461.28,2546.59,9688.0,8.73,53.36,0.0,8.53,51.55,51.53
900,0.029999997,-13465.5,2546.59,10260.0,8.56,51.88,0.0,8.52,50.07,51.72
901,0.029999997,-12845.67,2654.6,10260.0,9.17,50.49,0.0,8.42,48.94,51.65
902,0.028999997,-12493.9,2474.6,10932.0,8.48,48.12,0.0,8.43,47.42,51.52
903,0.029999997,-12370.08,2434.63,10900.0,8.4,47.93,0.0,8.22,46.27,51.39
904,0.031,-12130.27,2346.66,11228.0,8.08,46.61,0.0,8.06,45.0,51.3
905,0.029999997,-12286.43,2434.67,11608.0,8.2,46.02,0.0,7.94,43.94,51.17
906,0.028999997,-12138.61,2122.7,12008.0,7.09,44.88,0.0,7.75,42.75,50.93
907,0.029999997,-11570.81,2246.72,12176.0,7.62,43.07,0.0,7.6,41.47,50.8
908,0.029999997,-11458.98,2270.75,12524.0,7.62,42.01,0.0,7.44,40.37,50.83
909,0.029999997,-11175.08,2122.76,12864.0,7.1,40.61,0.0,7.35,39.64,50.7
910,0.029999997,-11187.22,2178.75,12592.0,7.37,41.21,0.0,7.42,38.76,50.54
911,0.029999997,-10907.39,2150.72,12724.0,7.32,40.22,0.0,7.65,37.65,50.58
912,0.028999997,-11103.54,2310.69,12704.0,7.8,40.7,0.0,7.81,36.67,50.57
913,0.029999997,-10771.67,2334.66,13348.0,7.75,38.49,0.0,8.02,35.81,50.65
914,0.031,-10287.81,2286.63,13604.0,7.64,36.73,0.0,8.22,34.86,50.72
915,0.029999997,-10375.98,1886.59,13776.0,6.25,36.74,0.0,8.52,33.72,50.84
916,0.028999997,-9548.2,2118.57,14456.0,6.98,33.18,0.0,8.66,32.34,50.8
917,0.029999997,-9264.4,2438.56,14304.0,8.15,32.57,0.0,8.73,31.02,50.78
918,0.029999997,-8972.57,2382.55,14360.0,8.01,31.66,0.0,8.82,29.84,50.89
919,0.028999997,-8840.77,2450.52,14784.0,8.1,30.55,0.0,8.96,28.58,50.87
920,0.029999997,-8524.99,2270.49,15076.0,7.47,29.22,0.0,9.21,27.1,50.9
921,0.029999997,-8153.25,2534.44,15152.0,8.38,27.96,0.0,9.51,25.4,51.15
922,0.028999997,-7885.42,2634.43,15328.0,8.69,26.89,0.0,9.64,24.29,51.18
923,0.029999997,-7585.56,2830.39,15832.0,9.16,25.26,0.0,9.89,23.34,51.24
924,0.028999997,-7253.7,3082.36,15720.0,10.1,24.37,0.0,10.09,22.42,51.3
925,0.029999997,-6977.87,3006.32,15520.0,10.02,23.82,0.0,10.34,21.31,51.23
926,0.029999997,-6934.02,3034.32,15988.0,9.88,23.08,0.0,10.38,20.31,51.18
927,0.031,-6882.09,3166.33,16808.0,9.89,21.92,0.0,10.3,19.87,51.13
928,0.029999997,-6278.16,3274.35,16160.0,10.7,20.85,0.0,10.18,19.44,50.94
929,0.028999997,-6190.2,2898.36,16308.0,9.44,20.5,0.0,10.12,19.12,50.81
930,0.029999997,-5698.32,2726.35,16756.0,8.76,18.56,0.0,10.19,18.38,50.71
931,0.031,-5894.47,2994.35,16472.0,9.72,19.4,0.0,10.16,17.34,50.57
932,0.028999997,-4290.52,2046.41,15044.0,7.46,15.79,0.0,9.76,17.06,50.6
933,0.029999997,-7550.46,1222.49,13876.0,4.43,28.46,0.0,9.19,17.44,50.55
934,0.029999997,-8818.44,1158.52,19908.0,3.05,23.86,0.0,8.98,17.54,50.59
935,0.028999997,-5710.52,2762.53,16472.0,9.01,18.88,0.0,8.95,17.05,50.48
936,0.029999997,-1270.63,4074.49,14148.0,16.01,4.94,0.0,9.18,16.31,50.74
937,0.029999997,-4142.73,3170.44,16032.0,10.84,14.23,0.0,9.53,15.63,50.68
938,0.029999997,-6450.8,3022.42,16360.0,9.76,21.2,0.0,9.71,15.21,50.55
939,0.028999997,-6434.75,3186.49,16700.0,10.1,20.73,0.0,9.17,15.52,51.19
940,0.029999997,-7150.74,-125.44,15220.0,-0.42,25.17,0.0,8.7,15.57,51.23
941,0.029999997,-5886.77,2514.59,16544.0,8.15,19.38,0.0,8.5,15.4,51.33
942,0.028999997,-5794.79,2470.63,16648.0,7.98,19.0,0.0,8.25,15.24,51.38
943,0.029999997,-4818.82,2554.65,17060.0,8.2,15.61,0.0,8.12,15.03,51.32
944,0.029999997,-4962.84,2486.65,17064.0,7.97,16.06,0.0,8.08,14.95,51.23
945,0.028999997,-4946.86,2546.67,17308.0,8.06,15.79,0.0,7.97,14.81,51.09
946,0.029999997,-5006.86,2574.68,16840.0,8.34,16.38,0.0,7.86,14.8,50.87
947,0.029999997,-4110.92,2262.69,16952.0,7.4,13.52,0.0,7.8,14.39,50.61
948,0.029999997,-4614.92,2282.72,17408.0,7.23,14.73,0.0,7.61,14.38,50.39
949,0.028999997,-4338.96,2350.73,17260.0,7.53,13.99,0.0,7.51,14.11,50.25
950,0.029999997,-4358.99,2278.75,17180.0,7.33,14.12,0.0,7.38,13.94,50.18
951,0.029999997,-4495.01,2338.76,16908.0,7.62,14.76,0.0,7.32,13.82,50.11
952,0.028999997,-4331.05,2170.77,17624.0,6.82,13.71,0.0,7.26,13.54,50.01
953,0.028999997,-4483.08,2174.78,17476.0,6.88,14.28,0.0,7.2,13.33,49.91
954,0.031,-4439.11,2234.78,17112.0,7.21,14.43,0.0,7.18,13.12,49.79
955,0.028999997,-4391.14,2158.79,17496.0,6.83,13.99,0.0,7.17,12.92,49.66
956,0.029999997,-4255.16,2158.78,17344.0,6.9,13.69,0.0,7.19,12.82,49.57
957,0.029999997,-4003.2,2194.78,17564.0,6.95,12.75,0.0,7.18,12.56,49.49
958,0.028999997,-4175.24,2122.79,17300.0,6.81,13.47,0.0,7.14,12.31,49.46
959,0.031,-4199.28,2150.8,17640.0,6.77,13.3,0.0,7.09,12.02,49.39
960,0.029999997,-3659.34,2142.81,17484.0,6.84,11.74,0.0,6.97,11.61,49.36
961,0.029999997,-4003.41,2086.84,17464.0,6.65,12.82,0.0,6.82,11.19,49.31
962,0.028999997,-3451.47,2014.86,17596.0,6.41,11.03,0.0,6.68,10.77,49.3
963,0.029999997,-3651.51,2002.88,17492.0,6.4,11.72,0.0,6.52,10.49,49.27
964,0.031,-3515.56,1878.91,17668.0,5.96,11.19,0.0,6.34,10.21,49.23
965,0.028999997,-3583.59,1890.93,17872.0,5.93,11.28,0.0,6.2,9.99,49.19
966,0.029999997,-3279.63,1922.95,17772.0,6.08,10.4,0.0,6.02,9.74,49.14
967,0.029999997,-3095.68,1970.97,17320.0,6.4,10.07,0.0,5.93,9.41,49.11
968,0.028999997,-3379.72,1886.97,17816.0,5.94,10.68,0.0,5.87,9.14,49.08
969,0.029999997,-3131.77,1982.99,17764.0,6.28,9.94,0.0,5.8,8.83,49.01
970,0.028999997,-3135.81,1842.99,17776.0,5.83,9.95,0.0,5.76,8.56,48.95
971,0.029999997,-3127.83,1746.99,17788.0,5.53,9.93,0.0,5.75,8.41,48.87
972,0.028999997,-2827.86,1670.99,17576.0,5.37,9.1,0.0,5.76,8.24,48.73
973,0.028999997,-2619.93,1350.97,17908.0,4.27,8.3,0.0,5.88,7.76,48.47
974,0.029999997,-2308.0,1590.96,18000.0,5.01,7.28,0.0,5.96,7.31,48.3
975,0.028999997,-2372.08,1830.97,17812.0,5.82,7.55,0.0,5.9,6.75,48.16
976,0.028999997,-2392.16,1786.98,17512.0,5.78,7.74,0.0,5.81,6.25,48.05
977,0.029999997,-2248.23,1695.01,17916.0,5.37,7.12,0.0,5.61,5.78,47.98
978,0.028999997,-2448.3,1815.04,17780.0,5.78,7.8,0.0,5.4,5.3,47.87
979,0.029999997,-1676.43,1563.07,18144.0,4.91,5.26,0.0,5.2,4.49,47.83
980,0.028999997,-1792.53,1419.1,18120.0,4.46,5.63,0.0,4.98,3.78,47.8
981,0.028999997,-1740.61,1627.12,18148.0,5.1,5.45,0.0,4.89,3.28,47.75
982,0.029999997,-1512.66,1343.14,18564.0,4.13,4.64,0.0,4.76,2.95,47.7
983,0.028999997,-1412.71,1479.16,18180.0,4.64,4.43,0.0,4.62,2.61,47.64
984,0.029999997,-856.8,1427.17,18504.0,4.41,2.64,0.0,4.49,2.01,47.59
985,0.027999999,-756.88,1371.2,17980.0,4.36,2.4,0.0,4.33,1.49,47.6
986,0.029999997,-1088.94,1363.22,18016.0,4.32,3.45,0.0,4.19,1.12,47.57
987,0.029999997,-541.0,1231.23,18412.0,3.83,1.68,0.0,4.09,0.7,47.53
988,0.027999999,-621.04,1323.25,17816.0,4.25,1.99,0.0,3.99,0.48,47.54
989,0.028999997,-521.08,1271.26,18372.0,3.96,1.62,0.0,3.88,0.18,47.53
990,0.029999997,-269.16,1243.29,18040.0,3.94,0.85,0.0,3.72,-0.31,47.5
991,0.028999997,-57.24,1007.33,18576.0,3.11,0.17,0.0,3.46,-0.84,47.46
992,0.028999997,-29.31,1059.36,18228.0,3.33,0.09,0.0,3.22,-1.3,47.45
993,0.028999997,342.63,935.4,18496.0,2.9,-1.06,0.0,2.95,-1.71,47.42
994,0.028999997,258.57,815.47,18632.0,2.51,-0.8,0.0,2.49,-2.1,47.38
995,0.028999997,90.55,823.56,17864.0,2.64,-0.29,0.0,1.84,-2.24,47.31
996,0.028999997,586.58,423.7,17432.0,1.39,-1.93,0.0,0.86,-2.02,47.24
997,0.028999997,418.64,231.86,18260.0,0.73,-1.32,0.0,-0.2,-1.68,47.16
998,0.029999997,134.7,-35.96,18184.0,-0.11,-0.43,0.0,-1.45,-1.26,47.2
999,0.029999997,-69.23,-555.74,18284.0,-1.74,0.21,0.0,-2.95,-0.83,47.32
1000,0.028999997,-53.22,-1119.56,18192.0,-3.52,0.16,0.0,-4.17,-0.72,47.43
1001,0.029999997,-69.21,-1387.4,17864.0,-4.44,0.22,0.0,-5.33,-0.69,47.59
1002,0.029999997,-129.19,-1503.22,18328.0,-4.69,0.4,0.0,-6.56,-0.54,47.67
1003,0.029999997,-317.16,-2227.04,18488.0,-6.87,0.97,0.0,-7.75,-0.35,47.72
1004,0.029999997,54.84,-2434.86,17908.0,-7.75,-0.18,0.0,-8.99,-0.37,47.76
1005,0.029999997,-301.18,-2750.67,17976.0,-8.7,0.95,0.0,-10.3,-0.49,47.8
1006,0.031,-237.2,-3130.49,18228.0,-9.75,0.73,0.0,-11.55,-0.61,47.79
1007,0.028999997,246.77,-3122.34,17648.0,-10.04,-0.79,0.0,-12.58,-0.77,47.79
1008,0.031,102.74,-4046.15,18140.0,-12.58,-0.32,0.0,-13.89,-1.02,47.98
1009,0.031,174.71,-4605.97,17892.0,-14.44,-0.55,0.0,-15.13,-1.18,48.26
1010,0.031,-321.3,-4529.76,17408.0,-14.59,1.02,0.0,-16.52,-1.26,48.44
1011,0.029999997,94.66,-5197.6,17244.0,-16.78,-0.31,0.0,-17.67,-1.52,48.59
1012,0.031,-97.38,-5269.47,17836.0,-16.47,0.3,0.0,-18.56,-1.79,48.56
1013,0.031,114.65,-4809.33,17312.0,-15.53,-0.37,0.0,-19.48,-1.57,48.87
1014,0.029999997,-221.32,-5933.19,17200.0,-19.04,0.69,0.0,-20.45,-1.41,49.06
1015,0.031,190.61,-6337.05,17460.0,-19.96,-0.59,0.0,-21.43,-1.83,48.83
1016,0.031,-153.44,-6672.88,16912.0,-21.54,0.48,0.0,-22.57,-2.19,48.55
1017,0.031,642.49,-6436.71,16336.0,-21.5,-2.1,0.0,-23.79,-2.61,48.29
1018,0.029999997,874.45,-7180.55,16616.0,-23.35,-2.77,0.0,-24.87,-2.91,48.08
1019,0.029999997,302.38,-7608.41,17288.0,-23.76,-0.92,0.0,-25.85,-3.35,47.75
1020,0.031,990.35,-7788.16,16924.0,-24.68,-3.05,0.0,-27.57,-3.57,47.45
1021,0.029999997,1146.32,-7171.97,15080.0,-25.38,-3.93,0.0,-28.84,-3.8,47.4
1022,0.032,1162.24,-8643.81,16248.0,-27.96,-3.62,0.0,-29.97,-4.28,47.24
1023,0.031,-149.78,-10135.54,17012.0,-30.8,0.43,0.0,-31.78,-4.43,47.17
1024,0.031,1918.16,-8063.3,14016.0,-29.7,-6.77,0.0,-33.45,-4.8,47.14
1025,0.029999997,-153.81,-10507.06,16124.0,-33.1,0.45,0.0,-35.12,-4.62,46.85
1026,0.031,382.18,-11142.76,16332.0,-34.31,-1.11,0.0,-37.15,-4.7,46.12
1027,0.032,2166.15,-8574.55,12808.0,-33.44,-8.01,0.0,-38.62,-4.85,45.83
1028,0.031,2282.19,-10466.41,13648.0,-37.12,-7.56,0.0,-39.53,-4.59,45.68
1029,0.029999997,1762.24,-11830.34,14552.0,-38.92,-5.37,0.0,-40.07,-4.3,45.68
1030,0.032,1902.26,-10406.3,13280.0,-37.82,-6.44,0.0,-40.29,-4.14,45.82
1031,0.031,1214.28,-11718.21,14052.0,-39.73,-3.8,0.0,-40.9,-4.02,45.92
1032,0.031,838.3,-11262.12,13804.0,-39.17,-2.7,0.0,-41.58,-3.9,45.83
1033,0.031,1462.33,-11238.04,13168.0,-40.32,-4.83,0.0,-42.1,-3.73,45.92
1034,0.031,1454.34,-12101.95,13512.0,-41.7,-4.59,0.0,-42.7,-3.66,45.86
1035,0.032,1414.32,-11825.87,12812.0,-42.55,-4.64,0.0,-43.3,-3.77,45.65
1036,0.029999997,1630.31,-11889.81,12756.0,-42.77,-5.35,0.0,-43.7,-3.86,45.65
1037,0.032,1442.31,-12029.75,12968.0,-42.69,-4.67,0.0,-44.13,-3.85,45.64
1038,0.031,1242.3,-12573.67,13004.0,-43.92,-3.93,0.0,-44.65,-3.92,45.65
1039,0.032,1298.29,-12521.58,13068.0,-43.65,-4.11,0.0,-45.29,-3.96,45.56
1040,0.029999997,1158.28,-12073.5,12572.0,-43.74,-3.81,0.0,-45.83,-4.03,45.4
1041,0.032,1566.27,-11797.4,11868.0,-44.6,-5.35,0.0,-46.52,-4.12,45.27
1042,0.031,1114.27,-13193.28,12468.0,-46.52,-3.52,0.0,-47.31,-4.12,45.1
1043,0.032,2078.22,-12197.17,11508.0,-46.22,-7.07,0.0,-48.07,-4.44,44.79
1044,0.029999997,1354.2,-12853.09,11868.0,-47.11,-4.43,0.0,-48.6,-4.57,44.55
1045,0.032,1438.19,-13476.98,12204.0,-47.66,-4.53,0.0,-49.39,-4.64,44.34
1046,0.031,2350.17,-12524.84,11392.0,-47.13,-7.91,0.0,-50.32,-4.76,44.12
1047,0.031,1486.15,-12804.79,11088.0,-48.87,-5.02,0.0,-50.67,-4.9,43.9
1048,0.031,1866.14,-13868.69,11544.0,-49.88,-5.91,0.0,-51.38,-4.93,43.74
1049,0.031,1962.11,-14184.56,11436.0,-50.73,-6.15,0.0,-52.26,-5.13,43.44
1050,0.032,2594.07,-13196.45,10264.0,-51.28,-8.82,0.0,-53.01,-5.43,43.31
1051,0.029999997,1790.05,-13972.38,10428.0,-52.88,-5.87,0.0,-53.47,-5.56,43.29
1052,0.032,2214.02,-13740.3,10464.0,-52.12,-7.31,0.0,-54.07,-5.73,43.08
1053,0.031,2242.01,-13704.21,10240.0,-52.6,-7.47,0.0,-54.67,-5.83,42.89
1054,0.032,2397.98,-13684.15,9804.0,-53.6,-8.11,0.0,-55.11,-5.97,42.86
1055,0.029999997,1961.96,-14452.05,10268.0,-54.13,-6.32,0.0,-55.77,-6.14,42.73
1056,0.032,2521.89,-14019.94,9520.0,-54.93,-8.47,0.0,-56.5,-6.56,42.37
1057,0.031,2465.85,-13999.88,9452.0,-55.11,-8.31,0.0,-56.93,-6.88,42.25
1058,0.029999997,2973.77,-15063.76,9772.0,-55.87,-9.41,0.0,-57.75,-7.4,41.91
1059,0.031,2585.65,-15095.59,9676.0,-56.45,-8.21,0.0,-58.95,-8.16,41.24
1060,0.031,3661.56,-14703.4,8696.0,-57.32,-12.1,0.0,-60.24,-8.76,40.84
1061,0.032,3005.48,-15115.25,8884.0,-58.19,-9.73,0.0,-61.29,-9.28,40.72
1062,0.029999997,3197.43,-14771.09,7960.0,-59.87,-10.79,0.0,-62.37,-9.65,40.62
1063,0.032,2925.37,-14702.91,7828.0,-60.4,-9.97,0.0,-63.62,-9.99,40.64
1064,0.031,2657.35,-14586.74,7160.0,-62.38,-9.29,0.0,-64.75,-10.16,40.55
1065,0.031,3101.33,-14990.61,6884.0,-63.28,-10.65,0.0,-65.63,-10.25,40.36
1066,0.031,3341.3,-15270.49,6684.0,-63.94,-11.34,0.0,-66.48,-10.47,39.96
1067,0.032,3901.25,-14718.41,6228.0,-63.48,-13.72,0.0,-67.02,-10.78,39.67
1068,0.031,3845.22,-14330.43,5776.0,-64.17,-13.98,0.0,-66.92,-10.98,39.61
1069,0.031,3493.22,-14918.52,6296.0,-64.25,-12.18,0.0,-66.29,-11.02,39.69
1070,0.032,3557.21,-15182.68,6336.0,-64.43,-12.2,0.0,-65.17,-11.06,39.93
1071,0.032,3313.16,-16007.04,6960.0,-64.3,-10.75,0.0,-62.72,-11.41,40.2
1072,0.031,4077.07,-14243.38,7624.0,-58.75,-14.17,0.0,-60.35,-12.0,39.88
1073,0.031,3465.05,-13827.72,7836.0,-58.23,-12.3,0.0,-58.04,-12.1,39.78
1074,0.032,4513.04,-15436.22,9308.0,-56.18,-14.06,0.0,-54.61,-12.17,40.33
1075,0.031,3988.91,-14988.73,10744.0,-52.61,-12.21,0.0,-51.09,-13.02,39.97
1076,0.032,3280.87,-11993.23,10392.0,-47.75,-11.69,0.0,-47.68,-13.33,39.8
1077,0.031,3716.92,-12193.75,11680.0,-44.86,-12.42,0.0,-44.08,-12.96,39.99
1078,0.032,4300.88,-13466.24,13440.0,-43.67,-12.74,0.0,-40.74,-13.25,39.71
1079,0.032,3308.81,-10382.62,12720.0,-38.32,-11.4,0.0,-38.14,-13.69,39.17
1080,0.032,3960.87,-10798.87,13412.0,-37.69,-12.96,0.0,-36.4,-13.28,39.06
1081,0.031,3792.96,-10999.07,14344.0,-36.56,-11.86,0.0,-35.03,-12.72,39.14
1082,0.032,4132.98,-10467.19,14052.0,-35.56,-13.28,0.0,-34.18,-12.57,38.97
1083,0.032,4129.04,-9991.29,13688.0,-34.96,-13.7,0.0,-33.52,-12.2,38.83
1084,0.032,4541.11,-10239.4,14372.0,-34.2,-14.44,0.0,-32.77,-11.7,38.84
1085,0.031,3761.16,-10235.51,14892.0,-33.69,-11.76,0.0,-32.02,-11.37,38.86
1086,0.032,3645.18,-9595.7,14676.0,-32.41,-11.75,0.0,-30.72,-11.29,38.8
1087,0.032,3841.22,-8752.0,14420.0,-30.4,-12.84,0.0,-28.61,-11.01,38.96
1088,0.031,3249.29,-8484.31,15928.0,-27.57,-10.21,0.0,-26.53,-10.54,39.18
1089,0.031,2993.37,-7996.59,16100.0,-26.04,-9.46,0.0,-24.56,-9.99,39.34
1090,0.031,3193.45,-7680.88,15816.0,-25.46,-10.3,0.0,-22.62,-9.52,39.48
1091,0.032,3065.54,-6877.19,16112.0,-22.76,-9.93,0.0,-20.43,-8.9,39.63
1092,0.029999997,2645.59,-6317.5,16540.0,-20.67,-8.51,0.0,-18.34,-8.55,39.87
1093,0.031,2329.61,-6185.78,17600.0,-19.22,-7.12,0.0,-16.43,-8.43,40.03
1094,0.031,2857.63,-5402.03,16812.0,-17.58,-9.2,0.0,-14.73,-8.31,40.28
1095,0.032,2949.68,-5030.29,17548.0,-15.79,-9.19,0.0,-12.92,-7.97,40.51
1096,0.029999997,2421.77,-4610.51,18068.0,-14.2,-7.41,0.0,-11.38,-7.4,40.7
1097,0.031,2317.83,-4174.72,17504.0,-13.31,-7.35,0.0,-9.99,-6.98,40.74
1098,0.031,2285.91,-3666.95,17804.0,-11.55,-7.17,0.0,-8.39,-6.48,40.84
1099,0.031,1902.03,-3363.21,18132.0,-10.45,-5.89,0.0,-6.56,-5.66,41.06
1100,0.029999997,2562.11,-2671.49,18424.0,-8.17,-7.84,0.0,-4.69,-5.14,41.23
1101,0.031,1686.19,-2115.76,17656.0,-6.8,-5.42,0.0,-2.83,-4.64,41.45
1102,0.029999997,1322.29,-1492.02,18340.0,-4.64,-4.12,0.0,-1.05,-3.97,41.65
1103,0.029999997,1514.4,-920.29,17936.0,-2.93,-4.83,0.0,0.82,-3.23,41.92
1104,0.029999997,790.55,-556.52,18096.0,-1.76,-2.5,0.0,2.42,-2.27,42.17
1105,0.029999997,798.66,-228.7,18152.0,-0.72,-2.52,0.0,3.65,-1.55,42.42
1106,0.028999997,758.69,427.13,18024.0,1.36,-2.41,0.0,4.83,-1.31,42.7
1107,0.029999997,674.76,614.95,18796.0,1.88,-2.06,0.0,6.06,-0.87,43.11
1108,0.028999997,510.84,1182.76,17972.0,3.77,-1.63,0.0,7.37,-0.34,43.37
1109,0.029999997,694.89,1526.55,18648.0,4.68,-2.13,0.0,8.8,-0.04,43.97
1110,0.027999999,106.93,2222.37,17744.0,7.14,-0.35,0.0,9.99,0.24,44.46
1111,0.029999997,-225.0,2602.14,17180.0,8.62,0.74,0.0,11.58,0.74,45.09
1112,0.029999997,135.08,3049.97,17700.0,9.78,-0.43,0.0,12.79,1.24,45.51
1113,0.027999999,-108.9,3313.82,18324.0,10.26,0.33,0.0,13.79,1.39,45.95
1114,0.029999997,-204.88,3781.68,17820.0,11.99,0.64,0.0,14.76,1.52,46.48
1115,0.029999997,-972.8,4381.51,17572.0,13.99,3.07,0.0,15.96,2.02,46.91
1116,0.028999997,-204.74,4389.34,17264.0,14.27,0.66,0.0,17.1,2.43,47.19
1117,0.029999997,-704.66,4765.19,18544.0,14.41,2.11,0.0,18.11,2.92,47.46
1118,0.029999997,-748.6,5321.02,17252.0,17.14,2.37,0.0,19.28,3.37,47.74
1119,0.028999997,-240.54,5516.85,17228.0,17.76,0.76,0.0,20.49,3.75,48.05
1120,0.029999997,-1020.45,5956.65,16672.0,19.64,3.3,0.0,21.81,4.33,48.29
1121,0.029999997,-696.38,6108.48,16140.0,20.72,2.31,0.0,23.03,4.83,48.43
1122,0.029999997,-892.31,6512.3,16428.0,21.61,2.89,0.0,24.21,5.25,48.59
1123,0.028999997,-676.3,6200.19,17120.0,19.91,2.13,0.0,24.99,5.32,48.84
1124,0.029999997,-896.3,6860.1,16580.0,22.46,2.86,0.0,25.62,5.34,49.16
1125,0.029999997,-1300.29,7595.95,16924.0,24.12,4.01,0.0,26.63,5.41,49.52
1126,0.028999997,-1276.26,7255.81,16364.0,23.86,4.08,0.0,27.61,5.6,49.75
1127,0.029999997,-472.27,7815.62,16092.0,25.91,1.51,0.0,28.89,5.51,50.21
1128,0.029999997,-1556.27,8227.47,15496.0,27.86,5.07,0.0,29.93,5.5,50.71
1129,0.028999997,-1004.28,8519.33,15044.0,29.48,3.32,0.0,30.91,5.44,51.03
1130,0.031,-1484.24,8955.16,16168.0,28.89,4.59,0.0,32.04,5.71,51.17
1131,0.029999997,-492.23,8863.05,16108.0,28.82,1.53,0.0,32.8,5.75,51.34
1132,0.029999997,-808.24,9406.93,15668.0,30.96,2.53,0.0,33.64,5.72,51.67
1133,0.028999997,-1452.22,9754.8,15584.0,31.95,4.51,0.0,34.56,5.84,51.95
1134,0.029999997,-1152.21,9862.67,15008.0,33.25,3.67,0.0,35.43,5.93,52.04
1135,0.029999997,-940.2,9958.53,14192.0,35.01,3.1,0.0,36.4,6.0,52.29
1136,0.028999997,-1396.15,10486.41,15024.0,34.81,4.36,0.0,37.24,6.3,52.43
1137,0.029999997,-1384.09,10466.24,13968.0,36.73,4.53,0.0,38.41,6.68,52.52
1138,0.031,-1340.01,10678.03,13856.0,37.51,4.38,0.0,39.8,7.23,52.6
1139,0.028999997,-1067.95,11045.88,14012.0,38.18,3.42,0.0,40.88,7.61,52.72
1140,0.031,-1151.93,11265.71,12804.0,41.24,3.86,0.0,42.01,7.76,52.9
1141,0.029999997,-1355.89,11521.53,12520.0,42.47,4.56,0.0,43.24,8.01,53.05
1142,0.029999997,-1111.85,11545.37,12504.0,42.62,3.74,0.0,44.35,8.3,53.13
1143,0.028999997,-1611.81,12293.22,12928.0,43.35,5.16,0.0,45.41,8.55,53.24
1144,0.031,-1435.73,12317.01,11504.0,46.75,4.87,0.0,46.82,9.07,53.21
1145,0.029999997,-1715.68,12568.85,12532.0,44.83,5.52,0.0,47.93,9.42,53.18
1146,0.028999997,-1759.66,12452.73,12080.0,45.59,5.79,0.0,48.76,9.56,53.37
1147,0.029999997,-2283.57,12924.65,12056.0,46.5,7.36,0.0,49.31,10.15,53.35
1148,0.031,-2719.5,13460.54,11136.0,49.6,8.85,0.0,50.09,10.59,53.25
1149,0.028999997,-1895.47,13112.38,11428.0,48.56,6.22,0.0,51.15,10.75,53.27
1150,0.029999997,-1619.47,13260.23,10920.0,50.24,5.39,0.0,52.18,10.8,53.35
1151,0.029999997,-2139.44,13692.09,10320.0,52.43,7.11,0.0,53.12,10.97,53.45
1152,0.029999997,-1691.45,13536.0,10336.0,52.29,5.67,0.0,53.79,10.88,53.52
1153,0.029999997,-2395.44,13915.91,9980.0,53.61,7.96,0.0,54.41,10.97,53.67
1154,0.029999997,-2131.41,14103.77,9304.0,55.93,7.19,0.0,55.35,11.15,53.83
1155,0.029999997,-1783.4,14023.63,8808.0,57.36,6.15,0.0,56.29,11.24,53.97
1156,0.027999999,-1955.42,13927.56,9572.0,54.97,6.6,0.0,56.79,11.13,54.29
1157,0.029999997,-2699.39,14263.51,9048.0,56.51,9.08,0.0,57.16,11.34,54.52
1158,0.029999997,-2163.37,14379.37,8028.0,59.98,7.48,0.0,58.07,11.47,54.67
1159,0.028999997,-2139.33,14679.22,9092.0,57.55,7.06,0.0,59.1,11.72,54.64
1160,0.029999997,-1919.32,14355.16,9676.0,55.52,6.33,0.0,59.52,11.78,54.62
1161,0.029999997,-2119.32,14419.11,7780.0,60.8,7.37,0.0,59.9,11.79,54.72
1162,0.029999997,-2803.25,14882.93,6532.0,64.48,9.78,0.0,61.1,12.21,54.63
1163,0.028999997,-2295.2,15054.79,9980.0,55.79,7.24,0.0,62.1,12.54,54.4
1164,0.029999997,-1859.21,14334.72,8056.0,60.04,6.45,0.0,62.53,12.51,54.48
1165,0.029999997,-2651.22,14958.62,6144.0,65.91,9.31,0.0,63.22,12.44,54.69
1166,0.028999997,-3363.15,15706.5,8228.0,60.51,10.74,0.0,64.09,12.91,54.44
1167,0.029999997,-1863.13,14862.4,6948.0,64.19,6.48,0.0,64.74,13.0,54.27
1168,0.029999997,-2011.16,14766.35,6940.0,63.94,7.03,0.0,65.11,12.81,54.48
1169,0.028999997,-2875.16,15338.31,7456.0,62.49,9.57,0.0,65.34,12.84,54.68
1170,0.029999997,-2515.15,15158.28,6256.0,66.03,8.72,0.0,65.56,12.86,54.8
1171,0.029999997,-2351.16,15066.26,6856.0,64.32,8.08,0.0,65.7,12.81,54.95
1172,0.028999997,-2351.19,14862.28,6344.0,65.54,8.28,0.0,65.6,12.61,55.12
1173,0.029999997,-2627.22,15214.32,6796.0,64.42,8.96,0.0,65.28,12.42,55.28
1174,0.029999997,-2055.28,15038.37,6500.0,65.63,7.15,0.0,64.93,12.04,55.39
1175,0.029999997,-2779.32,15094.46,6680.0,64.4,9.55,0.0,64.32,11.76,55.39
1176,0.028999997,-2591.36,14766.62,7012.0,63.16,9.01,0.0,63.22,11.53,55.28
1177,0.029999997,-2463.35,14686.96,7552.0,61.61,8.48,0.0,60.9,11.58,54.75
1178,0.029999997,-2043.42,14499.22,7680.0,61.29,7.1,0.0,59.09,11.12,54.69
1179,0.027999999,-2715.49,14931.49,8960.0,57.93,8.86,0.0,57.28,10.62,54.71
1180,0.029999997,-2663.58,14663.87,9712.0,55.53,8.61,0.0,54.65,10.06,54.51
1181,0.029999997,-2191.71,13576.26,9688.0,53.83,7.48,0.0,51.97,9.23,54.45
1182,0.028999997,-3047.79,13648.64,10276.0,51.87,10.11,0.0,49.38,8.7,54.37
1183,0.029999997,-1355.89,12585.06,11368.0,47.72,4.57,0.0,46.48,8.04,54.72
1184,0.029999997,-2431.95,12525.48,12556.0,44.42,7.81,0.0,43.59,7.64,54.67
1185,0.029999997,-1748.02,12169.79,11836.0,45.5,5.88,0.0,41.46,7.14,54.97
1186,0.028999997,-2128.11,11922.02,13236.0,41.66,6.81,0.0,39.9,6.56,54.91
1187,0.029999997,-2368.19,11398.22,13732.0,39.3,7.56,0.0,38.5,6.07,54.77
1188,0.031,-1972.27,10682.48,14644.0,35.88,6.21,0.0,36.77,5.5,54.47
1189,0.028999997,-1684.38,10658.71,14392.0,36.35,5.37,0.0,35.14,4.81,54.23
1190,0.029999997,-1648.47,9762.97,14584.0,33.65,5.36,0.0,33.34,4.18,54.06
1191,0.029999997,-1396.57,9515.25,15196.0,31.96,4.45,0.0,31.44,3.53,53.89
1192,0.029999997,-1348.65,9311.55,15188.0,31.42,4.33,0.0,29.41,3.04,53.83
1193,0.029999997,-1324.72,8863.8,15384.0,29.87,4.26,0.0,27.69,2.53,53.75
1194,0.029999997,-884.8,8416.04,16164.0,27.48,2.78,0.0,26.02,2.0,53.67
1195,0.029999997,-1180.86,7804.3,16092.0,25.82,3.77,0.0,24.25,1.64,53.57
1196,0.028999997,-952.91,7548.5,16272.0,24.86,3.04,0.0,22.87,1.32,53.55
1197,0.029999997,-636.96,7112.71,16592.0,23.2,2.02,0.0,21.42,0.95,53.4
1198,0.029999997,-557.04,6460.95,17128.0,20.67,1.74,0.0,19.8,0.44,53.35
1199,0.028999997,-685.12,6401.18,16940.0,20.69,2.16,0.0,18.22,-0.06,53.3
1200,0.029999997,-561.18,6053.4,17156.0,19.43,1.76,0.0,16.7,-0.5,53.19
1201,0.029999997,-321.24,5805.61,17372.0,18.48,1.0,0.0,15.24,-0.85,53.06
1202,0.029999997,-321.31,5117.8,17328.0,16.46,1.01,0.0,13.91,-1.3,52.93
1203,0.029999997,66.61,4474.0,17524.0,14.33,-0.22,0.0,12.6,-1.87,52.88
1204,0.029999997,342.52,4094.22,17676.0,13.04,-1.09,0.0,11.06,-2.47,52.86
1205,0.028999997,286.44,4002.43,17460.0,12.91,-0.92,0.0,9.62,-2.94,52.88
1206,0.029999997,230.36,3642.63,18092.0,11.39,-0.72,0.0,8.2,-3.52,52.87
1207,0.029999997,650.25,3170.83,17656.0,10.18,-2.08,0.0,6.89,-4.21,52.83
1208,0.029999997,866.19,2682.98,17412.0,8.75,-2.82,0.0,5.82,-4.61,52.94
1209,0.027999999,1114.15,2243.1,17756.0,7.19,-3.57,0.0,4.97,-4.9,53.04
1210,0.029999997,1282.09,2035.24,17872.0,6.48,-4.08,0.0,4.02,-5.25,53.14
1211,0.029999997,1142.04,1735.38,18584.0,5.33,-3.51,0.0,3.06,-5.61,53.28
1212,0.028999997,1218.01,1319.5,18248.0,4.13,-3.81,0.0,2.28,-5.79,53.42
1213,0.029999997,1054.0,1087.6,18456.0,3.37,-3.27,0.0,1.6,-5.84,53.54
1214,0.029999997,1042.01,823.68,18648.0,2.53,-3.2,0.0,1.04,-5.81,53.63
1215,0.028999997,1370.01,639.75,18396.0,1.99,-4.26,0.0,0.57,-5.82,53.69
1216,0.029999997,1318.01,287.81,18556.0,0.89,-4.07,0.0,0.14,-5.8,53.71
1217,0.028999997,1790.0,-40.14,18564.0,-0.12,-5.51,0.0,-0.22,-5.9,53.76
1218,0.028999997,1681.99,-8.09,17988.0,-0.03,-5.35,0.0,-0.58,-5.96,53.85
1219,0.029999997,1493.97,39.95,18380.0,0.12,-4.65,0.0,-0.85,-6.08,53.95
1220,0.029999997,1785.96,56.0,18068.0,0.18,-5.65,0.0,-1.15,-6.16,54.06
1221,0.029999997,1317.92,260.02,17712.0,0.84,-4.26,0.0,-1.3,-6.37,54.15
1222,0.028999997,1797.9,40.04,17920.0,0.13,-5.74,0.0,-1.43,-6.56,54.31
1223,0.028999997,1373.88,136.06,18104.0,0.43,-4.35,0.0,-1.6,-6.68,54.44
1224,0.029999997,1765.85,-179.92,17780.0,-0.58,-5.68,0.0,-1.71,-6.85,54.62
1225,0.029999997,1657.84,-195.92,17888.0,-0.63,-5.3,0.0,-1.74,-6.95,54.8
1226,0.029999997,1513.83,-179.89,17952.0,-0.57,-4.83,0.0,-1.9,-7.0,54.88
1227,0.031,2001.8,-435.87,18228.0,-1.36,-6.27,0.0,-2.06,-7.16,54.98
1228,0.028999997,2169.78,-535.84,17772.0,-1.71,-6.96,0.0,-2.24,-7.33,55.06
1229,0.031,2449.75,-767.82,18104.0,-2.41,-7.71,0.0,-2.38,-7.52,55.2
1230,0.029999997,2169.73,-459.81,18044.0,-1.45,-6.86,0.0,-2.47,-7.66,55.37
1231,0.029999997,2197.71,-447.8,17996.0,-1.42,-6.97,0.0,-2.55,-7.81,55.47
1232,0.029999997,2293.69,-467.78,18024.0,-1.48,-7.26,0.0,-2.66,-7.91,55.58
1233,0.029999997,2177.68,-387.77,17784.0,-1.24,-6.99,0.0,-2.78,-7.99,55.67
1234,0.031,2645.67,-663.74,18032.0,-2.09,-8.35,0.0,-2.93,-8.05,55.77
1235,0.028999997,3085.63,-371.71,19224.0,-1.09,-9.12,0.0,-3.15,-8.34,55.75
1236,0.031,2005.63,-703.7,18216.0,-2.2,-6.29,0.0,-3.24,-8.29,55.85
1237,0.029999997,2113.65,-663.69,18300.0,-2.06,-6.59,0.0,-3.33,-8.19,55.9
1238,0.031,2245.67,-967.67,18332.0,-3.0,-6.98,0.0,-3.44,-8.07,55.91
1239,0.028999997,2289.67,-991.66,18256.0,-3.09,-7.15,0.0,-3.52,-8.04,55.95
1240,0.031,2289.67,-1239.64,18376.0,-3.83,-7.09,0.0,-3.63,-8.03,56.0
1241,0.029999997,2401.67,-1115.64,18168.0,-3.48,-7.52,0.0,-3.67,-8.01,56.08
1242,0.029999997,2125.68,-775.64,18140.0,-2.43,-6.68,0.0,-3.65,-7.97,56.11
1243,0.029999997,2245.68,-1011.64,18352.0,-3.13,-6.97,0.0,-3.67,-7.97,56.13
1244,0.031,2301.67,-963.64,18264.0,-3.0,-7.18,0.0,-3.65,-8.02,56.16
1245,0.031,2441.67,-943.64,18172.0,-2.95,-7.65,0.0,-3.63,-8.06,56.19
1246,0.028999997,2129.66,-1075.65,18516.0,-3.3,-6.56,0.0,-3.59,-8.09,56.2
1247,0.031,2633.64,-1103.65,18072.0,-3.46,-8.28,0.0,-3.56,-8.22,56.23
1248,0.029999997,2329.62,-951.66,18348.0,-2.95,-7.23,0.0,-3.54,-8.34,56.27
1249,0.029999997,2257.62,-907.66,18228.0,-2.83,-7.06,0.0,-3.52,-8.34,56.3
1250,0.029999997,2521.6,-1031.66,18284.0,-3.2,-7.85,0.0,-3.51,-8.49,56.3
1251,0.031,2377.59,-735.66,17860.0,-2.34,-7.58,0.0,-3.52,-8.57,56.33
1252,0.029999997,2441.58,-843.66,17736.0,-2.7,-7.84,0.0,-3.51,-8.62,56.3
1253,0.029999997,2569.58,-951.67,17852.0,-3.02,-8.19,0.0,-3.45,-8.66,56.33
1254,0.029999997,2525.58,-767.67,17912.0,-2.43,-8.03,0.0,-3.47,-8.63,56.29
1255,0.031,2553.58,-791.67,18060.0,-2.49,-8.05,0.0,-3.42,-8.62,56.33
1256,0.028999997,2457.59,-783.68,18100.0,-2.46,-7.73,0.0,-3.37,-8.55,56.3
1257,0.031,2585.6,-935.68,18016.0,-2.94,-8.16,0.0,-3.38,-8.53,56.27
1258,0.029999997,2317.6,-855.69,18044.0,-2.69,-7.32,0.0,-3.32,-8.5,56.23
1259,0.029999997,2557.61,-975.7,18100.0,-3.06,-8.04,0.0,-3.26,-8.46,56.22
1260,0.029999997,2625.62,-907.7,18176.0,-2.83,-8.22,0.0,-3.23,-8.39,56.23
1261,0.031,2269.63,-899.71,18312.0,-2.79,-7.06,0.0,-3.18,-8.28,56.24
1262,0.029999997,2617.66,-951.7,18504.0,-2.92,-8.05,0.0,-3.2,-8.08,56.28
1263,0.029999997,2137.69,-847.71,18140.0,-2.66,-6.72,0.0,-3.13,-7.88,56.28
1264,0.029999997,2505.71,-975.72,17992.0,-3.08,-7.92,0.0,-3.11,-7.76,56.29
1265,0.029999997,2653.73,-1195.71,18244.0,-3.71,-8.27,0.0,-3.17,-7.66,56.3
1266,0.029999997,2333.76,-1071.7,18140.0,-3.35,-7.33,0.0,-3.22,-7.47,56.35
1267,0.031,1897.8,-1079.69,18160.0,-3.39,-5.96,0.0,-3.28,-7.2,56.42
1268,0.031,2365.86,-1031.67,18684.0,-3.14,-7.21,0.0,-3.43,-6.76,56.55
1269,0.029999997,2161.9,-1127.67,18144.0,-3.53,-6.79,0.0,-3.44,-6.53,56.66
1270,0.029999997,1877.94,-1099.65,18368.0,-3.41,-5.83,0.0,-3.55,-6.24,56.72
1271,0.031,1989.98,-1195.64,18236.0,-3.73,-6.22,0.0,-3.63,-5.99,56.81
1272,0.029999997,1918.0,-947.64,18108.0,-2.98,-6.04,0.0,-3.64,-5.88,56.87
1273,0.029999997,1946.03,-1235.64,18312.0,-3.84,-6.06,0.0,-3.65,-5.64,57.04
1274,0.031,1578.09,-987.63,18136.0,-3.11,-4.97,0.0,-3.71,-5.26,57.15
1275,0.029999997,1322.13,-1155.62,18632.0,-3.54,-4.06,0.0,-3.75,-5.01,57.25
1276,0.031,1618.18,-1047.62,18424.0,-3.24,-5.02,0.0,-3.81,-4.67,57.37
1277,0.028999997,1290.21,-1191.61,18472.0,-3.68,-3.99,0.0,-3.87,-4.49,57.46
1278,0.031,1486.25,-1383.61,18292.0,-4.31,-4.64,0.0,-3.87,-4.22,57.55
1279,0.031,1330.28,-1351.61,18728.0,-4.12,-4.06,0.0,-3.84,-4.0,57.62
1280,0.029999997,1846.29,-1635.59,19048.0,-4.89,-5.52,0.0,-3.96,-3.95,57.66
1281,0.029999997,1210.31,-1471.58,18448.0,-4.55,-3.75,0.0,-4.06,-3.86,57.72
1282,0.031,1106.32,-1183.58,18464.0,-3.66,-3.43,0.0,-4.05,-3.74,57.81
1283,0.031,674.32,-1107.59,18152.0,-3.49,-2.13,0.0,-4.01,-3.74,57.81
1284,0.028999997,994.34,-1051.58,18188.0,-3.31,-3.13,0.0,-4.02,-3.63,57.85
1285,0.031,590.35,-951.6,17652.0,-3.09,-1.92,0.0,-3.95,-3.56,57.92
1286,0.029999997,682.37,-947.61,17836.0,-3.04,-2.19,0.0,-3.85,-3.46,57.98
1287,0.028999997,594.41,-951.62,17944.0,-3.04,-1.9,0.0,-3.81,-3.2,58.06
1288,0.029999997,778.43,-995.63,18164.0,-3.14,-2.46,0.0,-3.74,-3.05,58.13
1289,0.029999997,794.47,-1259.63,18520.0,-3.89,-2.46,0.0,-3.71,-2.75,58.22
1290,0.029999997,1050.5,-1363.62,18412.0,-4.23,-3.26,0.0,-3.77,-2.55,58.34
1291,0.031,622.57,-1303.62,18356.0,-4.06,-1.94,0.0,-3.81,-2.13,58.47
1292,0.029999997,802.61,-1363.6,18332.0,-4.25,-2.5,0.0,-3.89,-1.85,58.63
1293,0.029999997,462.66,-1179.6,18192.0,-3.71,-1.46,0.0,-3.92,-1.53,58.78
1294,0.029999997,290.7,-1079.6,18320.0,-3.37,-0.91,0.0,-3.93,-1.25,58.92
1295,0.029999997,358.74,-1223.6,18240.0,-3.84,-1.13,0.0,-3.95,-1.01,59.02
1296,0.031,518.77,-1187.59,18388.0,-3.7,-1.62,0.0,-3.96,-0.8,59.15
1297,0.028999997,514.79,-1287.59,18128.0,-4.06,-1.63,0.0,-3.97,-0.66,59.27
1298,0.031,402.8,-1163.61,18132.0,-3.67,-1.27,0.0,-3.85,-0.58,59.42
1299,0.029999997,422.83,-1143.62,18172.0,-3.6,-1.33,0.0,-3.79,-0.4,59.6
1300,0.031,-213.12,-1087.62,18512.0,-3.36,0.65,0.0,-3.77,-0.07,59.79
1301,0.028999997,38.91,-983.62,18220.0,-3.09,-0.13,0.0,-3.75,0.12,59.97
1302,0.029999997,-173.06,-1319.62,18276.0,-4.13,0.54,0.0,-3.81,0.34,60.16
1303,0.029999997,-525.01,-1047.64,18212.0,-3.29,1.65,0.0,-3.66,0.62,60.32
1304,0.028999997,-228.99,-1391.64,18348.0,-4.34,0.71,0.0,-3.67,0.77,60.44
1305,0.029999997,-276.96,-1271.65,18280.0,-3.98,0.86,0.0,-3.61,0.96,60.59
1306,0.031,-416.92,-1279.65,18360.0,-3.99,1.29,0.0,-3.59,1.22,60.76
1307,0.028999997,-436.89,-1263.65,18320.0,-3.95,1.36,0.0,-3.57,1.43,60.92
1308,0.029999997,-416.87,-1323.65,18224.0,-4.15,1.3,0.0,-3.56,1.6,61.07
1309,0.029999997,-584.84,-1199.66,18260.0,-3.76,1.83,0.0,-3.52,1.76,61.23
1310,0.028999997,-468.82,-1235.66,18024.0,-3.92,1.48,0.0,-3.5,1.87,61.38
1311,0.031,-412.81,-1287.66,18168.0,-4.05,1.3,0.0,-3.5,2.0,61.56
1312,0.029999997,-668.78,-1463.66,18336.0,-4.56,2.08,0.0,-3.51,2.16,61.75
1313,0.029999997,-764.75,-1215.67,18008.0,-3.86,2.42,0.0,-3.47,2.35,62.02
1314,0.028999997,-852.73,-1035.67,17896.0,-3.31,2.72,0.0,-3.43,2.48,62.24
1315,0.029999997,-852.72,-1023.68,17676.0,-3.31,2.75,0.0,-3.37,2.59,62.48
1316,0.031,-780.7,-779.71,17692.0,-2.52,2.52,0.0,-3.18,2.69,62.68
1317,0.027999999,-728.69,-907.71,18144.0,-2.86,2.29,0.0,-3.14,2.77,62.9
1318,0.029999997,-1020.67,-663.73,17904.0,-2.12,3.26,0.0,-3.05,2.87,63.11
1319,0.031,-680.66,-871.73,18228.0,-2.74,2.13,0.0,-3.06,2.94,63.34
1320,0.028999997,-964.64,-815.72,18056.0,-2.58,3.05,0.0,-3.07,3.11,63.54
1321,0.028999997,-904.63,-887.73,18316.0,-2.77,2.82,0.0,-3.02,3.18,63.73
1322,0.029999997,-1068.61,-647.75,18072.0,-2.05,3.38,0.0,-2.92,3.3,63.93
1323,0.031,-1004.59,-679.75,18344.0,-2.12,3.13,0.0,-2.9,3.41,64.11
1324,0.028999997,-1220.58,-367.76,17840.0,-1.18,3.91,0.0,-2.83,3.47,64.25
1325,0.029999997,-1232.56,-607.76,18324.0,-1.9,3.84,0.0,-2.79,3.58,64.35
1326,0.029999997,-1368.55,-727.76,17904.0,-2.32,4.37,0.0,-2.82,3.68,64.5
1327,0.028999997,-1220.54,-755.75,18072.0,-2.39,3.86,0.0,-2.86,3.72,64.63
1328,0.031,-1344.53,-815.75,18120.0,-2.57,4.24,0.0,-2.89,3.78,64.78
1329,0.029999997,-1424.51,-1107.75,18112.0,-3.49,4.49,0.0,-2.88,3.95,64.94
1330,0.028999997,-1264.48,-1031.74,17780.0,-3.31,4.06,0.0,-2.96,4.13,65.15
1331,0.031,-1392.47,-1027.74,17720.0,-3.31,4.48,0.0,-2.95,4.22,65.36
1332,0.029999997,-1312.46,-911.75,17772.0,-2.93,4.22,0.0,-2.87,4.28,65.56
1333,0.029999997,-1604.44,-919.76,18064.0,-2.9,5.07,0.0,-2.81,4.41,65.76
1334,0.029999997,-1556.43,-683.78,17992.0,-2.17,4.94,0.0,-2.67,4.48,65.97
1335,0.029999997,-1812.41,-587.79,18436.0,-1.82,5.61,0.0,-2.61,4.61,66.12
1336,0.029999997,-1528.4,-571.8,17956.0,-1.82,4.86,0.0,-2.54,4.66,66.3
1337,0.028999997,-2292.38,-519.82,17908.0,-1.65,7.29,0.0,-2.43,4.8,66.36
1338,0.029999997,-1692.36,-607.81,17876.0,-1.94,5.4,0.0,-2.46,4.89,66.45
1339,0.031,-1716.35,-711.81,17720.0,-2.29,5.53,0.0,-2.46,5.0,66.55
1340,0.029999997,-1580.34,-607.8,17900.0,-1.94,5.04,0.0,-2.57,5.09,66.63
1341,0.028999997,-1612.34,-395.8,17744.0,-1.27,5.19,0.0,-2.52,5.03,66.76
1342,0.029999997,-1668.35,-587.81,18292.0,-1.83,5.21,0.0,-2.48,4.98,66.82
1343,0.029999997,-1760.34,-439.83,18328.0,-1.37,5.48,0.0,-2.36,5.05,66.95
1344,0.029999997,-1596.35,-459.85,17852.0,-1.47,5.11,0.0,-2.23,4.97,67.07
1345,0.029999997,-1892.33,-347.85,18024.0,-1.1,5.99,0.0,-2.18,5.13,67.17
1346,0.029999997,-1948.32,-359.86,17852.0,-1.15,6.23,0.0,-2.16,5.21,67.24
1347,0.028999997,-1804.29,-627.86,17748.0,-2.02,5.8,0.0,-2.15,5.39,67.32
1348,0.029999997,-1760.28,-551.86,17404.0,-1.81,5.77,0.0,-2.15,5.47,67.4
1349,0.031,-1864.25,-443.87,17156.0,-1.47,6.2,0.0,-2.1,5.67,67.5
1350,0.029999997,-2004.24,-391.88,17568.0,-1.27,6.51,0.0,-2.03,5.75,67.57
1351,0.028999997,-1824.23,-387.89,17496.0,-1.26,5.95,0.0,-1.9,5.75,67.61
1352,0.029999997,-1940.22,-483.92,18088.0,-1.52,6.12,0.0,-1.71,5.82,67.67
1353,0.029999997,-2208.22,-259.96,17784.0,-0.83,7.08,0.0,-1.46,5.86,67.73
1354,0.029999997,-2016.21,-376.0,18096.0,-1.18,6.36,0.0,-1.15,5.91,67.8
1355,0.029999997,-2020.2,-140.06,17452.0,-0.46,6.6,0.0,-0.74,6.0,67.92
1356,0.029999997,-3592.15,-580.14,18560.0,-1.76,10.95,0.0,-0.21,6.33,68.03
1357,0.028999997,-2128.11,51.77,17860.0,0.17,6.79,0.0,0.39,6.6,68.12
1358,0.029999997,-2268.04,407.67,17904.0,1.3,7.22,0.0,1.1,7.04,68.25
1359,0.028999997,-2359.99,447.58,18400.0,1.38,7.31,0.0,1.69,7.36,68.44
1360,0.027999999,-2195.94,571.51,18012.0,1.81,6.95,0.0,2.2,7.66,68.56
1361,0.029999997,-2595.84,727.42,17896.0,2.31,8.25,0.0,2.8,8.33,68.68
1362,0.028999997,-2223.76,647.34,18264.0,2.02,6.94,0.0,3.35,8.89,68.83
1363,0.029999997,-2635.67,591.29,18344.0,1.83,8.17,0.0,3.73,9.47,69.07
1364,0.027999999,-2851.54,843.23,17936.0,2.66,9.03,0.0,4.11,10.3,69.37
1365,0.029999997,-3395.38,1203.16,17984.0,3.76,10.67,0.0,4.56,11.38,69.67
1366,0.029999997,-3591.21,1211.11,17784.0,3.82,11.39,0.0,4.92,12.48,70.01
1367,0.028999997,-3783.03,1563.06,17440.0,5.01,12.19,0.0,5.26,13.67,70.22
1368,0.029999997,-4274.79,1755.03,17244.0,5.64,13.86,0.0,5.52,15.24,70.56
1369,0.028999997,-4894.6,1951.01,17076.0,6.27,15.9,0.0,5.64,16.48,70.92
1370,0.028999997,-4874.39,1767.0,17056.0,5.69,15.87,0.0,5.7,17.86,71.35
1371,0.029999997,-5706.28,2058.98,17460.0,6.4,17.99,0.0,5.85,18.63,71.61
1372,0.029999997,-5742.2,2150.96,16764.0,6.92,18.77,0.0,6.0,19.15,71.73
1373,0.028999997,-5942.06,2170.94,16464.0,7.07,19.69,0.0,6.11,20.05,71.86
1374,0.029999997,-5945.95,2198.92,16940.0,6.99,19.2,0.0,6.24,20.77,71.94
1375,0.029999997,-6269.81,2158.93,16812.0,6.86,20.31,0.0,6.19,21.68,72.05
1376,0.029999997,-6437.68,2038.94,16428.0,6.59,21.26,0.0,6.12,22.57,72.13
1377,0.028999997,-6653.55,2322.93,15972.0,7.65,22.41,0.0,6.18,23.42,72.12
1378,0.029999997,-6957.47,2218.92,16112.0,7.21,23.17,0.0,6.25,23.94,72.05
1379,0.029999997,-7173.35,2050.92,16360.0,6.55,23.52,0.0,6.22,24.74,72.17
1380,0.028999997,-7545.23,2050.92,16020.0,6.61,25.05,0.0,6.23,25.52,72.22
1381,0.029999997,-7753.12,1998.94,16676.0,6.21,24.79,0.0,6.09,26.23,72.2
1382,0.029999997,-7757.02,2102.96,15540.0,6.91,26.33,0.0,6.0,26.92,72.22
1383,0.028999997,-7776.9,1934.97,15496.0,6.37,26.48,0.0,5.89,27.71,72.26
1384,0.029999997,-8352.77,1882.99,15968.0,5.97,27.46,0.0,5.78,28.57,72.33
1385,0.029999997,-8184.64,1735.01,15200.0,5.74,28.16,0.0,5.66,29.43,72.46
1386,0.028999997,-8524.46,1999.01,15248.0,6.53,29.01,0.0,5.64,30.61,72.67
1387,0.028999997,-8760.3,1719.01,15244.0,5.59,29.74,0.0,5.64,31.61,72.78
1388,0.029999997,-8948.11,1915.01,14644.0,6.37,31.22,0.0,5.6,32.92,72.83
1389,0.029999997,-9543.89,1891.01,14028.0,6.36,34.0,0.0,5.65,34.38,72.99
1390,0.028999997,-9819.68,1687.02,14664.0,5.46,33.65,0.0,5.58,35.71,73.11
1391,0.029999997,-9583.5,2063.02,13964.0,6.95,34.19,0.0,5.59,36.93,73.26
1392,0.029999997,-9983.31,2023.0,13532.0,6.86,36.13,0.0,5.69,38.18,73.42
1393,0.028999997,-10471.12,1619.0,13928.0,5.31,36.76,0.0,5.66,39.43,73.59
1394,0.029999997,-10322.94,2230.98,12708.0,7.76,38.68,0.0,5.81,40.59,73.75
1395,0.031,-10826.77,1722.98,13464.0,5.7,38.59,0.0,5.84,41.69,74.05
1396,0.028999997,-11790.64,2206.97,13220.0,7.1,41.35,0.0,5.87,42.58,74.31
1397,0.029999997,-11810.49,2474.95,12188.0,8.3,43.53,0.0,6.05,43.59,74.59
1398,0.029999997,-11722.34,2494.91,12468.0,8.3,42.69,0.0,6.29,44.53,74.83
1399,0.029999997,-12126.17,2454.89,11956.0,8.2,44.83,0.0,6.44,45.67,75.09
1400,0.029999997,-11750.04,2386.85,11648.0,8.21,44.67,0.0,6.7,46.51,75.38
1401,0.029999997,-11945.88,2566.84,11228.0,8.9,46.06,0.0,6.82,47.59,75.75
1402,0.029999997,-11853.73,2670.8,10936.0,9.4,46.49,0.0,7.09,48.56,76.1
1403,0.028999997,-12533.6,2578.78,11096.0,8.76,47.75,0.0,7.24,49.39,76.49
1404,0.029999997,-12737.49,2930.74,10776.0,9.96,48.77,0.0,7.48,50.16,76.83
1405,0.031,-12653.4,2982.7,10572.0,10.25,49.05,0.0,7.78,50.74,77.15
1406,0.028999997,-12821.31,2998.67,10452.0,10.28,49.71,0.0,7.98,51.35,77.5
1407,0.029999997,-12793.21,3178.67,10156.0,11.01,50.26,0.0,7.99,52.0,77.82
1408,0.031,-12881.14,3542.63,9608.0,12.43,51.53,0.0,8.27,52.42,78.05
1409,0.029999997,-13117.07,3278.59,9888.0,11.29,51.56,0.0,8.5,52.93,78.26
1410,0.028999997,-13029.0,3166.58,9912.0,10.95,51.4,0.0,8.55,53.39,78.5
1411,0.029999997,-13416.95,3510.55,9532.0,12.04,52.88,0.0,8.75,53.72,78.64
1412,0.031,-13224.91,3454.53,9524.0,11.97,52.56,0.0,8.91,53.95,78.73
1413,0.028999997,-13068.88,3438.5,9300.0,12.1,52.83,0.0,9.11,54.14,78.86
1414,0.029999997,-13564.87,3718.46,9252.0,12.76,53.69,0.0,9.39,54.2,78.82
1415,0.029999997,-13488.87,3474.44,9536.0,11.88,53.05,0.0,9.57,54.2,78.68
1416,0.028999997,-13664.86,3562.41,9380.0,12.13,53.72,0.0,9.72,54.27,78.66
1417,0.031,-13660.96,3570.38,9288.0,12.2,53.94,0.0,9.98,53.64,78.35
1418,0.029999997,-12921.1,3134.35,9780.0,10.95,51.54,0.0,10.14,52.73,78.14
1419,0.029999997,-13189.29,3442.33,10084.0,11.72,51.08,0.0,10.32,51.45,77.79
1420,0.029999997,-12981.46,3290.33,10216.0,11.27,50.43,0.0,10.27,50.37,77.58
1421,0.031,-12677.71,3442.32,10148.0,11.97,49.81,0.0,10.34,48.67,77.11
1422,0.029999997,-12417.87,3190.33,10380.0,11.15,48.84,0.0,10.33,47.61,76.92
1423,0.029999997,-12934.14,3222.29,11316.0,10.62,47.72,0.0,10.58,45.87,76.48
1424,0.031,-11802.58,3270.2,11476.0,11.24,44.7,0.0,11.16,42.97,75.66
1425,0.031,-11514.81,2626.18,11968.0,8.99,43.23,0.0,11.35,41.48,75.36
1426,0.029999997,-12087.04,3246.12,12672.0,10.51,42.75,0.0,11.73,39.94,75.05
1427,0.029999997,-11239.19,3118.08,12508.0,10.51,41.1,0.0,12.04,38.95,74.85
1428,0.029999997,-10579.32,3014.07,12476.0,10.44,39.51,0.0,12.08,38.08,74.74
1429,0.031,-10719.43,3118.08,12920.0,10.53,38.9,0.0,12.01,37.36,74.63
1430,0.029999997,-10895.53,3266.13,12936.0,10.93,39.25,0.0,11.69,36.72,74.41
1431,0.031,-10275.64,3086.2,12956.0,10.58,37.66,0.0,11.15,35.97,73.99
1432,0.029999997,-6731.96,-1193.77,12436.0,-4.82,28.33,0.0,10.99,33.87,75.25
1433,0.031,-12308.19,4294.13,14496.0,12.73,39.16,0.0,11.64,32.39,76.59
1434,0.029999997,-9856.36,3762.11,13264.0,12.83,35.57,0.0,11.8,31.25,77.09
1435,0.029999997,-9120.54,3554.09,14952.0,11.48,30.7,0.0,11.96,30.04,77.73
1436,0.031,-8524.89,4094.07,15384.0,13.11,28.18,0.0,12.05,27.78,77.99
1437,0.028999997,-8364.98,4166.07,15588.0,13.26,27.41,0.0,12.08,27.18,78.12
1438,0.031,-7917.08,3934.06,15304.0,12.87,26.62,0.0,12.16,26.48,78.24
1439,0.029999997,-7933.17,3578.06,15388.0,11.68,26.67,0.0,12.14,25.92,78.23
1440,0.028999997,-7585.26,3594.04,15460.0,11.79,25.55,0.0,12.29,25.36,78.28
1441,0.031,-7289.36,3682.06,15624.0,12.06,24.43,0.0,12.17,24.67,78.28
1442,0.029999997,-7037.45,3570.06,15400.0,11.91,24.0,0.0,12.18,24.08,78.2
1443,0.031,-7209.57,3870.06,16080.0,12.39,23.56,0.0,12.18,23.28,78.05
1444,0.028999997,-7209.75,3954.01,15528.0,13.01,24.23,0.0,12.46,22.08,77.95
1445,0.031,-6697.87,3794.0,16292.0,12.16,21.83,0.0,12.54,21.3,77.86
1446,0.029999997,-6029.98,3634.01,16036.0,11.98,20.15,0.0,12.49,20.58,77.82
1447,0.029999997,-6470.07,4098.0,15952.0,13.4,21.45,0.0,12.54,19.99,77.54
1448,0.029999997,-6062.15,3854.01,16468.0,12.39,19.72,0.0,12.47,19.45,77.53
1449,0.029999997,-6246.22,3890.03,16648.0,12.35,20.07,0.0,12.38,18.98,77.51
1450,0.031,-6038.24,4138.01,15556.0,13.93,20.57,0.0,12.47,18.87,77.52
1451,0.028999997,-5646.27,3798.0,15920.0,12.68,19.04,0.0,12.54,18.68,77.44
1452,0.031,-5654.27,3597.98,16180.0,11.86,18.84,0.0,12.72,18.66,77.44
1453,0.029999997,-5430.33,3733.95,16000.0,12.47,18.29,0.0,12.92,18.27,77.6
1454,0.029999997,-6282.36,3933.93,16220.0,12.75,20.63,0.0,13.06,18.07,77.9
1455,0.029999997,-5582.43,3969.89,16168.0,13.07,18.54,0.0,13.32,17.61,78.11
1456,0.031,-5458.54,4477.88,16084.0,14.78,18.11,0.0,13.41,16.91,77.9
1457,0.029999997,-5278.65,3965.87,16528.0,12.88,17.26,0.0,13.47,16.15,77.57
1458,0.029999997,-4426.82,4697.89,16716.0,15.21,14.31,0.0,13.33,15.09,77.21
1459,0.029999997,-4682.98,3933.91,17100.0,12.52,14.95,0.0,13.2,14.0,76.99
1460,0.029999997,-4839.11,3881.9,16712.0,12.58,15.75,0.0,13.23,13.16,76.87
1461,0.029999997,-4775.31,3973.89,17044.0,12.66,15.26,0.0,13.33,11.82,76.79
1462,0.029999997,-4275.55,4045.86,17148.0,12.9,13.64,0.0,13.49,10.23,76.57
1463,0.031,-3523.73,4073.87,16484.0,13.59,11.72,0.0,13.48,9.05,76.46
1464,0.028999997,-3087.83,3757.9,17192.0,12.15,9.95,0.0,13.23,8.43,76.44
1465,0.029999997,-2963.98,4073.92,17144.0,13.19,9.55,0.0,13.13,7.46,76.47
1466,0.029999997,-2824.16,3889.93,17532.0,12.36,8.94,0.0,13.05,6.26,76.32
1467,0.031,-2108.29,3637.94,17240.0,11.84,6.82,0.0,12.96,5.41,76.45
1468,0.028999997,-1660.48,3757.96,17788.0,11.89,5.22,0.0,12.84,4.1,76.6
1469,0.029999997,-2032.57,3653.98,17452.0,11.75,6.5,0.0,12.7,3.52,76.66
1470,0.029999997,-1644.75,3834.0,17708.0,12.17,5.18,0.0,12.54,2.36,76.67
1471,0.028999997,-1564.89,3394.06,17784.0,10.77,4.94,0.0,12.13,1.41,76.49
1472,0.031,-1481.02,3582.09,17736.0,11.39,4.68,0.0,11.93,0.55,76.36
1473,0.029999997,-1017.1,3846.08,17968.0,12.07,3.16,0.0,12.0,0.03,76.37
1474,0.028999997,-825.19,3618.11,17968.0,11.38,2.57,0.0,11.81,-0.53,76.39
1475,0.029999997,-217.31,3542.13,18272.0,10.98,0.66,0.0,11.66,-1.34,76.33
1476,0.029999997,-309.42,3570.14,17424.0,11.58,0.99,0.0,11.58,-2.06,76.31
1477,0.031,114.44,3514.17,17932.0,11.09,-0.36,0.0,11.42,-2.98,76.25
1478,0.028999997,298.34,3322.18,17428.0,10.8,-0.97,0.0,11.34,-3.63,76.2
1479,0.029999997,682.25,3482.2,18240.0,10.81,-2.11,0.0,11.16,-4.22,76.22
1480,0.029999997,718.18,3630.23,18472.0,11.12,-2.19,0.0,10.97,-4.69,76.23
1481,0.028999997,774.07,3326.26,18072.0,10.42,-2.42,0.0,10.78,-5.41,76.09
1482,0.031,221.94,3566.29,17880.0,11.28,-0.7,0.0,10.57,-6.25,75.89
1483,0.029999997,1713.86,3074.36,18284.0,9.51,-5.29,0.0,10.1,-6.8,75.92
1484,0.028999997,1445.83,2990.39,17524.0,9.66,-4.66,0.0,9.87,-6.99,75.99
1485,0.029999997,1469.8,2938.42,17892.0,9.3,-4.64,0.0,9.66,-7.17,76.04
1486,0.029999997,1581.77,2778.45,17976.0,8.76,-4.98,0.0,9.45,-7.37,76.03
1487,0.029999997,1405.67,3318.5,18912.0,9.93,-4.19,0.0,9.15,-8.02,76.06
1488,0.028999997,2569.6,2810.51,17744.0,8.91,-8.15,0.0,9.05,-8.5,76.17
1489,0.029999997,2213.53,2710.52,17660.0,8.66,-7.07,0.0,8.97,-8.98,76.0
1490,0.029999997,1969.47,2982.51,16192.0,10.37,-6.83,0.0,9.04,-9.38,75.67
1491,0.028999997,841.35,3454.51,14480.0,13.4,-3.24,0.0,9.09,-10.13,75.67
1492,0.029999997,4565.0,1734.72,17040.0,5.62,-14.93,0.0,7.61,-12.45,76.73
1493,0.031,2744.85,2678.79,20716.0,7.31,-7.49,0.0,7.16,-13.45,77.12
1494,0.028999997,3492.83,-893.12,14500.0,-3.42,-13.53,0.0,6.53,-13.6,77.19
1495,0.029999997,4489.01,2586.74,19012.0,7.55,-13.18,0.0,7.5,-12.39,76.67
1496,0.031,4632.84,4034.78,24504.0,9.19,-10.57,0.0,7.19,-13.48,76.71
1497,0.029999997,3864.85,2190.78,19072.0,6.43,-11.39,0.0,7.21,-13.43,76.31
1498,0.029999997,3644.44,-204.8,12292.0,-0.91,-16.53,0.0,4.3,-16.15,77.11
1499,0.031,5092.28,1779.23,16964.0,5.74,-16.63,0.0,4.13,-17.17,77.47
1500,0.029999997,4220.21,1451.29,16340.0,4.92,-14.44,0.0,3.72,-17.66,77.8
1501,0.028999997,4544.23,1511.26,15988.0,5.2,-15.81,0.0,3.91,-17.55,77.96
1502,0.031,4352.24,1751.27,17940.0,5.42,-13.59,0.0,3.81,-17.47,78.23
1503,0.029999997,5268.15,1359.32,17184.0,4.33,-17.01,0.0,3.49,-18.05,78.48
1504,0.031,5264.06,1331.34,17572.0,4.15,-16.64,0.0,3.33,-18.61,78.42
1505,0.028999997,5195.95,1443.38,17724.0,4.47,-16.3,0.0,3.09,-19.37,78.41
1506,0.031,5275.83,1415.43,17492.0,4.43,-16.74,0.0,2.75,-20.13,78.4
1507,0.029999997,5955.59,1363.54,18232.0,4.07,-18.06,0.0,2.02,-21.71,78.42
1508,0.029999997,6367.35,875.64,16684.0,2.81,-20.88,0.0,1.31,-23.34,78.42
1509,0.029999997,6851.16,795.72,16896.0,2.5,-22.06,0.0,0.74,-24.59,78.45
1510,0.029999997,7362.99,507.78,16256.0,1.63,-24.37,0.0,0.31,-25.69,78.57
1511,0.028999997,7386.86,407.82,16116.0,1.32,-24.63,0.0,0.03,-26.56,78.64
1512,0.029999997,7650.72,299.88,16580.0,0.94,-24.78,0.0,-0.31,-27.47,78.78
1513,0.031,8154.58,279.92,16656.0,0.86,-26.1,0.0,-0.63,-28.35,78.93
1514,0.029999997,8566.48,71.95,16192.0,0.23,-27.9,0.0,-0.8,-29.06,79.1
1515,0.028999997,8514.32,216.0,16464.0,0.67,-27.36,0.0,-1.19,-30.11,79.29
1516,0.031,8890.1,112.09,16320.0,0.35,-28.59,0.0,-1.77,-31.53,79.51
1517,0.029999997,8849.94,-139.86,15492.0,-0.45,-29.75,0.0,-2.15,-32.57,79.55
1518,0.029999997,9281.79,-367.81,15416.0,-1.17,-31.06,0.0,-2.48,-33.58,79.64
1519,0.031,9453.57,-475.74,15296.0,-1.52,-31.72,0.0,-2.98,-35.0,79.82
1520,0.031,9873.43,-619.7,14884.0,-1.99,-33.55,0.0,-3.22,-35.92,79.93
1521,0.031,10045.26,-719.65,14744.0,-2.31,-34.25,0.0,-3.58,-37.05,80.09
1522,0.029999997,10449.17,-939.65,14424.0,-3.02,-35.88,0.0,-3.59,-37.66,80.17
1523,0.032,10657.05,-803.62,14836.0,-2.52,-35.67,0.0,-3.78,-38.46,80.3
1524,0.031,10836.87,-1127.59,14592.0,-3.55,-36.54,0.0,-4.01,-39.6,80.42
1525,0.029999997,11416.71,-1047.55,14832.0,-3.2,-37.54,0.0,-4.27,-40.71,80.58
1526,0.032,11360.4,-1155.47,13644.0,-3.72,-39.7,0.0,-4.78,-42.73,81.05
1527,0.031,11484.25,-1375.45,13152.0,-4.5,-40.99,0.0,-4.95,-43.68,81.15
1528,0.032,11552.03,-895.41,13632.0,-2.87,-40.24,0.0,-5.25,-45.15,81.36
1529,0.029999997,12091.83,-1543.37,12548.0,-5.06,-43.74,0.0,-5.48,-46.47,81.54
1530,0.031,12855.63,-1491.34,12784.0,-4.7,-44.98,0.0,-5.69,-47.82,81.86
1531,0.032,13351.33,-1783.28,12448.0,-5.58,-46.73,0.0,-6.1,-49.77,82.35
1532,0.031,13187.08,-1851.24,11864.0,-5.96,-47.7,0.0,-6.42,-51.42,82.68
1533,0.031,13330.85,-1883.2,11080.0,-6.2,-49.89,0.0,-6.65,-52.91,82.98
1534,0.031,13930.69,-2003.18,11036.0,-6.43,-51.18,0.0,-6.78,-53.97,83.14
1535,0.032,14074.48,-2263.12,10864.0,-7.25,-51.76,0.0,-7.19,-55.35,83.31
1536,0.031,14238.07,-2003.07,10084.0,-6.55,-54.19,0.0,-7.56,-58.07,83.68
1537,0.031,13981.77,-2187.06,9608.0,-7.35,-54.84,0.0,-7.65,-60.05,83.8
1538,0.031,14269.58,-2235.05,9204.0,-7.5,-56.44,0.0,-7.68,-61.31,84.01
1539,0.031,14685.47,-2187.04,9012.0,-7.23,-57.75,0.0,-7.75,-62.01,84.09
1540,0.029999997,15957.02,-2250.97,8516.0,-7.09,-61.12,0.0,-8.23,-64.94,84.28
1541,0.032,17012.34,-2439.0,7008.0,-7.55,-66.45,0.0,-8.05,-69.43,84.82
1542,0.031,14755.64,-2347.12,6548.0,-8.27,-64.78,0.0,-7.2,-74.07,85.15
1543,0.031,16083.35,-3335.18,4600.0,-11.27,-70.56,0.0,-6.79,-75.94,85.65
1544,0.029999997,16239.27,-3043.18,4972.0,-10.15,-70.27,0.0,-6.83,-76.46,86.02
1545,0.032,16331.12,-3259.17,4284.0,-10.92,-71.77,0.0,-6.88,-77.48,86.24
1546,0.031,16506.9,-3315.19,3752.0,-11.08,-73.14,0.0,-6.76,-78.91,86.57
1547,0.032,16078.78,-3319.19,3764.0,-11.36,-72.68,0.0,-6.75,-79.71,86.73
1548,0.029999997,16458.71,-3343.16,3520.0,-11.23,-73.58,0.0,-6.95,-80.18,86.79
1549,0.032,16290.6,-3467.14,3108.0,-11.8,-74.06,0.0,-7.11,-80.91,86.77
1550,0.031,16578.53,-3319.11,2888.0,-11.15,-75.15,0.0,-7.31,-81.36,86.67
1551,0.031,16498.47,-3323.08,2716.0,-11.23,-75.43,0.0,-7.46,-81.79,86.6
1552,0.031,16606.34,-3387.04,2192.0,-11.43,-76.35,0.0,-7.74,-82.62,86.58
1553,0.032,16354.25,-3503.02,2036.0,-11.99,-76.09,0.0,-7.88,-83.19,86.42
1554,0.031,16626.2,-3370.99,1900.0,-11.38,-76.91,0.0,-8.1,-83.57,86.24
1555,0.031,16214.11,-2974.98,1836.0,-10.33,-77.84,0.0,-8.19,-84.1,86.09
1556,0.031,16770.07,-3118.95,1632.0,-10.48,-78.15,0.0,-8.39,-84.39,86.02
1557,0.032,16577.97,-2994.93,1548.0,-10.19,-78.51,0.0,-8.51,-85.07,86.01
1558,0.031,16657.86,-3026.91,976.0,-10.28,-79.2,0.0,-8.68,-85.8,85.97
1559,0.029999997,16573.77,-3098.89,672.0,-10.58,-79.17,0.0,-8.78,-86.39,85.88
1560,0.031,16501.7,-2942.88,600.0,-10.1,-79.69,0.0,-8.89,-86.83,85.81
1561,0.032,16293.57,-2942.86,312.0,-10.23,-79.71,0.0,-8.99,-87.67,85.78
1562,0.029999997,16529.51,-3074.85,-224.0,-10.53,-79.44,0.0,-9.07,-88.09,85.78
1563,0.031,16373.52,-3090.85,-316.0,-10.68,-79.26,0.0,-9.04,-87.99,85.74
1564,0.032,16341.62,-3150.87,-540.0,-10.9,-78.94,0.0,-8.94,-87.33,85.59
1565,0.031,16293.74,-3014.9,-192.0,-10.48,-79.5,0.0,-8.74,-86.59,85.39
1566,0.031,16586.11,-3186.94,416.0,-10.87,-79.04,0.0,-8.46,-84.11,85.34
1567,0.031,16534.77,-3131.02,1360.0,-10.68,-78.34,0.0,-7.88,-79.78,85.35
1568,0.031,16247.47,-2711.1,2504.0,-9.36,-77.21,0.0,-7.32,-75.19,85.31
1569,0.032,16376.07,-2583.13,4332.0,-8.67,-72.89,0.0,-7.14,-71.2,85.27
1570,0.029999997,16064.38,-3015.19,4028.0,-10.31,-72.62,0.0,-6.71,-69.21,85.21
1571,0.031,16068.7,-2399.28,5820.0,-7.99,-68.62,0.0,-6.13,-67.07,84.77
1572,0.032,15800.97,-2631.32,5692.0,-8.9,-68.37,0.0,-5.82,-65.3,84.12
1573,0.029999997,16297.18,-1951.38,7112.0,-6.26,-65.67,0.0,-5.44,-63.92,83.6
1574,0.031,15797.48,-2187.43,7108.0,-7.19,-64.8,0.0,-5.06,-61.98,83.02
1575,0.031,16081.73,-2235.46,7212.0,-7.23,-64.86,0.0,-4.84,-60.31,82.49
1576,0.031,15673.95,-1623.51,8060.0,-5.26,-62.34,0.0,-4.51,-58.84,81.88
1577,0.031,15154.11,-1547.55,8308.0,-5.12,-60.87,0.0,-4.24,-57.83,81.44
1578,0.031,15226.26,-1063.59,9252.0,-3.42,-58.56,0.0,-4.02,-56.78,80.97
1579,0.031,15006.34,-1291.6,8920.0,-4.23,-59.03,0.0,-3.9,-56.27,80.68
1580,0.031,14678.54,-1255.67,8592.0,-4.22,-59.41,0.0,-3.4,-54.94,79.73
1581,0.031,14886.85,-1031.75,9592.0,-3.33,-57.07,0.0,-2.92,-52.92,78.63
1582,0.031,14323.1,-307.83,10356.0,-1.0,-54.14,0.0,-2.37,-51.31,77.72
1583,0.031,14191.32,256.1,11208.0,0.81,-51.71,0.0,-1.89,-49.86,76.99
1584,0.029999997,13799.53,-59.97,10776.0,-0.2,-52.03,0.0,-1.4,-48.48,76.12
1585,0.031,13651.8,619.95,12012.0,1.95,-48.64,0.0,-0.8,-46.64,75.0
1586,0.029999997,13624.03,799.86,12108.0,2.51,-48.33,0.0,-0.22,-45.16,74.06
1587,0.031,13100.28,1031.75,12316.0,3.28,-46.68,0.0,0.53,-43.52,73.1
1588,0.029999997,12920.52,1607.64,12824.0,5.05,-45.01,0.0,1.31,-41.93,72.12
1589,0.029999997,11912.74,1983.52,12724.0,6.49,-42.79,0.0,2.09,-40.49,71.17
1590,0.031,11729.03,2023.39,13264.0,6.52,-41.18,0.0,3.02,-38.57,70.03
1591,0.029999997,11033.3,2675.26,13884.0,8.58,-37.98,0.0,3.9,-36.83,69.02
1592,0.031,11109.49,2875.16,14224.0,9.05,-37.45,0.0,4.61,-35.55,68.27
1593,0.029999997,10825.68,2943.05,14088.0,9.41,-36.97,0.0,5.33,-34.32,67.64
1594,0.031,10169.92,3374.95,14428.0,10.83,-34.48,0.0,6.07,-32.71,66.77
1595,0.029999997,10006.12,3422.85,14568.0,10.96,-33.78,0.0,6.74,-31.41,66.07
1596,0.031,9610.34,3754.74,14996.0,11.91,-31.88,0.0,7.5,-29.96,65.48
1597,0.031,9322.56,3946.63,15068.0,12.56,-30.92,0.0,8.23,-28.5,64.78
1598,0.028999997,8454.72,4458.54,14908.0,14.58,-28.53,0.0,8.88,-27.47,64.35
1599,0.031,8398.95,4222.43,15344.0,13.57,-27.84,0.0,9.58,-25.93,63.91
1600,0.031,8003.15,4518.36,15788.0,14.32,-26.0,0.0,10.11,-24.63,63.51
1601,0.031,7487.35,4498.3,15512.0,14.64,-24.88,0.0,10.52,-23.33,63.19
1602,0.029999997,7467.54,4850.26,16136.0,15.26,-23.91,0.0,10.79,-22.04,62.84
1603,0.031,6855.85,4646.24,15908.0,15.02,-22.49,0.0,10.92,-20.05,62.53
1604,0.031,6164.14,4898.22,16068.0,15.89,-20.16,0.0,11.06,-18.08,62.27
1605,0.029999997,5968.37,4990.21,16896.0,15.57,-18.73,0.0,11.14,-16.59,62.09
1606,0.029999997,5236.53,5066.18,16652.0,16.19,-16.75,0.0,11.36,-15.52,61.88
1607,0.031,5228.65,5014.15,16636.0,16.05,-16.76,0.0,11.55,-14.77,61.69
1608,0.031,5124.74,5010.13,16844.0,15.89,-16.27,0.0,11.67,-14.18,61.5
1609,0.029999997,4972.82,4794.09,16260.0,15.75,-16.36,0.0,11.92,-13.64,61.28
1610,0.031,4824.94,4882.05,16760.0,15.64,-15.46,0.0,12.25,-12.85,61.04
1611,0.031,4301.1,4946.0,16964.0,15.79,-13.69,0.0,12.55,-11.79,60.83
1612,0.029999997,4217.2,5301.97,17508.0,16.41,-12.99,0.0,12.79,-11.14,60.68
1613,0.031,4221.3,5121.91,16800.0,16.48,-13.52,0.0,13.21,-10.49,60.39
1614,0.031,3485.42,5261.85,16840.0,17.02,-11.18,0.0,13.62,-9.66,60.15
1615,0.031,3429.54,5429.78,16868.0,17.51,-10.96,0.0,14.08,-8.87,59.86
1616,0.029999997,2893.69,5753.69,17248.0,18.22,-9.05,0.0,14.71,-7.93,59.43
1617,0.029999997,2965.84,5393.61,17112.0,17.26,-9.39,0.0,15.24,-6.95,59.06
1618,0.029999997,2405.88,5845.54,17200.0,18.61,-7.55,0.0,15.74,-6.65,58.9
1619,0.029999997,2009.89,6153.47,17308.0,19.46,-6.25,0.0,16.24,-6.58,58.73
1620,0.029999997,2533.9,5981.38,16552.0,19.66,-8.2,0.0,16.85,-6.51,58.42
1621,0.031,2861.83,6105.3,17252.0,19.25,-8.89,0.0,17.4,-7.01,58.18
1622,0.029999997,2721.76,6169.21,16740.0,20.0,-8.68,0.0,17.96,-7.48,58.11
1623,0.029999997,2685.68,6333.11,16452.0,20.81,-8.67,0.0,18.64,-8.0,58.07
1624,0.029999997,2625.61,6437.0,16192.0,21.43,-8.58,0.0,19.44,-8.45,58.0
1625,0.031,3201.55,6408.85,15804.0,21.68,-10.64,0.0,20.43,-8.82,58.0
1626,0.028999997,3081.54,6924.71,16520.0,22.4,-9.77,0.0,21.45,-8.92,58.03
1627,0.031,2541.49,7720.55,16388.0,24.97,-7.99,0.0,22.51,-9.23,58.04
1628,0.029999997,2417.5,7768.37,15788.0,25.95,-7.83,0.0,23.76,-9.18,57.88
1629,0.031,2845.53,8084.15,16016.0,26.44,-9.02,0.0,25.24,-8.99,57.61
1630,0.028999997,2901.57,8539.97,16380.0,27.19,-8.93,0.0,26.53,-8.71,57.46
1631,0.031,2753.54,8639.76,15212.0,29.21,-8.95,0.0,27.94,-8.89,57.51
1632,0.029999997,2321.57,8751.56,14616.0,30.61,-7.77,0.0,29.29,-8.67,57.5
1633,0.029999997,2649.63,9023.33,14568.0,31.37,-8.8,0.0,30.87,-8.31,57.5
1634,0.029999997,2537.67,9807.13,14952.0,32.9,-8.08,0.0,32.26,-8.01,57.49
1635,0.029999997,2777.73,9482.92,13940.0,33.72,-9.36,0.0,33.73,-7.65,57.46
1636,0.031,2889.77,10138.7,15188.0,33.27,-9.0,0.0,35.19,-7.37,57.53
1637,0.029999997,2429.86,10398.48,14108.0,36.01,-7.9,0.0,36.71,-6.81,57.52
1638,0.029999997,2817.94,10662.28,14148.0,36.48,-9.04,0.0,38.13,-6.29,57.54
1639,0.031,2050.03,11174.08,13832.0,38.64,-6.58,0.0,39.51,-5.67,57.62
1640,0.029999997,2046.08,11593.88,13456.0,40.44,-6.58,0.0,40.83,-5.31,57.61
1641,0.029999997,1754.1,11797.71,13396.0,41.14,-5.62,0.0,42.01,-5.23,57.61
1642,0.031,1466.2,12049.52,12744.0,43.22,-4.78,0.0,43.34,-4.56,57.57
1643,0.031,1894.24,11933.32,12172.0,44.11,-6.35,0.0,44.73,-4.3,57.55
1644,0.029999997,1554.27,12617.13,12320.0,45.47,-5.04,0.0,46.02,-4.06,57.58
1645,0.029999997,1526.33,12684.94,11244.0,48.2,-5.15,0.0,47.33,-3.7,57.56
1646,0.031,1730.36,13056.74,11400.0,48.57,-5.7,0.0,48.71,-3.49,57.58
1647,0.029999997,1474.41,12980.55,10844.0,49.88,-4.99,0.0,49.99,-3.15,57.56
1648,0.029999997,1402.47,13348.36,10908.0,50.53,-4.65,0.0,51.28,-2.77,57.57
1649,0.031,1454.51,13456.17,10308.0,52.29,-4.91,0.0,52.57,-2.52,57.67
1650,0.028999997,1642.54,13996.01,10616.0,52.51,-5.34,0.0,53.67,-2.3,57.76
1651,0.031,1618.58,13611.86,9616.0,54.4,-5.55,0.0,54.75,-2.08,57.84
1652,0.029999997,1770.6,13867.7,9636.0,54.77,-5.99,0.0,55.79,-1.92,57.96
1653,0.029999997,1550.63,14543.59,10076.0,54.99,-5.01,0.0,56.59,-1.71,58.11
1654,0.029999997,1074.69,14647.48,9404.0,57.14,-3.54,0.0,57.36,-1.33,58.15
1655,0.029999997,1318.66,14583.39,8780.0,58.68,-4.43,0.0,57.95,-1.49,58.17
1656,0.029999997,1566.68,14611.29,8628.0,59.04,-5.28,0.0,58.61,-1.41,58.24
1657,0.028999997,942.7,14607.2,8236.0,60.44,-3.22,0.0,59.24,-1.26,58.37
1658,0.029999997,1030.72,14759.09,8124.0,60.99,-3.5,0.0,60.01,-1.1,58.39
1659,0.029999997,1242.74,15058.99,8340.0,60.77,-4.13,0.0,60.72,-1.02,58.47
