id,dt,accel_x,accel_y,accel_z,accel_angle_x,accel_angle_y,accel_angle_z,angle_x,angle_y,angle_z
0,0.001,-0.05,-0.03,0.13,-10.42,-12.18,0.0,-0.42,-0.49,0.0
1,0.019,-0.07,0.0,-0.08,-10.47,-12.31,0.0,-0.83,-0.95,0.01
2,0.027,-0.04,0.01,-0.18,-10.55,-12.59,0.0,-1.23,-1.39,0.02
3,0.025999999,-0.01,-0.08,0.01,-10.82,-12.54,0.0,-1.62,-1.85,0.02
4,0.027,-0.09,0.02,0.08,-10.24,-12.04,0.0,-2.01,-2.28,0.04
5,0.025999999,-0.02,0.01,-0.01,-10.38,-12.51,0.0,-2.35,-2.67,0.05
6,0.027,-0.1,0.15,0.06,-9.59,-12.06,0.0,-2.64,-3.01,0.06
7,0.027,-0.03,-0.13,0.05,-11.01,-12.38,0.0,-2.97,-3.36,0.09
8,0.025999999,-0.02,-0.13,-0.06,-11.13,-12.52,0.0,-3.36,-3.72,0.12
9,0.027999999,0.05,-0.02,-0.05,-10.55,-12.9,0.0,-3.65,-4.03,0.13
10,0.027,-0.07,-0.09,0.07,-10.81,-12.16,0.0,-4.0,-4.34,0.14
11,0.025999999,0.04,-0.02,0.03,-10.47,-12.75,0.0,-4.29,-4.67,0.14
12,0.027,0.01,0.04,0.02,-10.18,-12.62,0.0,-4.53,-4.95,0.14
13,0.025,-0.08,0.03,0.03,-10.21,-12.16,0.0,-4.79,-5.25,0.16
14,0.027,-0.03,-0.0,0.01,-10.42,-12.43,0.0,-5.07,-5.62,0.16
15,0.027,-0.04,0.01,0.03,-10.35,-12.36,0.0,-5.31,-5.93,0.17
16,0.025999999,-0.03,0.07,-0.11,-10.13,-12.57,0.0,-5.52,-6.2,0.18
17,0.027,-0.06,0.06,-0.04,-10.16,-12.37,0.0,-5.72,-6.44,0.2
18,0.027999999,-0.09,-0.07,0.04,-10.73,-12.06,0.0,-5.92,-6.66,0.22
19,0.025999999,-0.07,-0.02,0.16,-10.38,-12.07,0.0,-6.1,-6.87,0.23
20,0.027,-0.08,-0.0,-0.09,-10.52,-12.29,0.0,-6.28,-7.09,0.24
21,0.025999999,-0.14,0.01,-0.08,-10.44,-11.96,0.0,-6.47,-7.28,0.27
22,0.027,-0.09,-0.07,-0.17,-10.93,-12.32,0.0,-6.67,-7.5,0.3
23,0.027999999,-0.04,-0.11,-0.22,-11.17,-12.6,0.0,-6.86,-7.7,0.32
24,0.025999999,0.02,-0.22,-0.06,-11.59,-12.7,0.0,-7.02,-7.85,0.32
25,0.027,-0.11,-0.06,-0.01,-10.75,-12.05,0.0,-7.14,-7.98,0.31
26,0.027999999,0.01,-0.01,0.18,-10.27,-12.47,0.0,-7.31,-8.18,0.31
27,0.025999999,-0.05,-0.04,0.03,-10.57,-12.29,0.0,-7.48,-8.36,0.33
28,0.027,-0.08,-0.09,-0.07,-10.96,-12.25,0.0,-7.67,-8.55,0.35
29,0.025999999,-0.06,-0.14,-0.14,-11.24,-12.4,0.0,-7.82,-8.7,0.37
30,0.027999999,-0.03,-0.14,-0.03,-11.17,-12.45,0.0,-7.98,-8.88,0.37
31,0.027,-0.04,0.03,-0.09,-10.34,-12.5,0.0,-8.09,-9.02,0.39
32,0.025999999,-0.13,0.02,-0.11,-10.41,-12.08,0.0,-8.17,-9.14,0.4
33,0.027,-0.11,0.03,-0.19,-10.45,-12.23,0.0,-8.32,-9.28,0.4
34,0.027999999,-0.1,-0.04,-0.29,-10.88,-12.4,0.0,-8.4,-9.39,0.41
35,0.025999999,-0.05,-0.03,-0.01,-10.58,-12.35,0.0,-8.52,-9.52,0.41
36,0.027,-0.11,-0.03,-0.02,-10.58,-12.05,0.0,-8.59,-9.59,0.43
37,0.027,-0.04,-0.09,-0.09,-10.93,-12.46,0.0,-8.66,-9.62,0.44
38,0.027,-0.12,0.01,-0.01,-10.36,-12.0,0.0,-8.74,-9.74,0.43
39,0.027,-0.07,0.02,0.01,-10.29,-12.24,0.0,-8.81,-9.85,0.43
40,0.025999999,-0.13,0.01,0.01,-10.36,-11.93,0.0,-8.87,-9.94,0.44
41,0.027,-0.01,-0.13,0.08,-10.96,-12.44,0.0,-8.95,-10.03,0.46
42,0.027999999,-0.07,-0.17,-0.09,-11.39,-12.32,0.0,-9.05,-10.09,0.48
43,0.025999999,-0.02,-0.21,-0.23,-11.69,-12.74,0.0,-9.19,-10.18,0.47
44,0.027999999,-0.01,0.02,0.06,-10.26,-12.47,0.0,-9.28,-10.26,0.44
45,0.027,-0.14,0.06,0.07,-10.04,-11.8,0.0,-9.33,-10.31,0.42
46,0.025999999,-0.09,0.07,-0.14,-10.16,-12.33,0.0,-9.37,-10.38,0.41
47,0.027999999,-0.06,0.13,0.06,-9.67,-12.25,0.0,-9.38,-10.41,0.41
48,0.025999999,-0.09,0.12,0.18,-9.67,-11.97,0.0,-9.36,-10.46,0.42
49,0.025999999,-0.04,0.01,0.02,-10.35,-12.36,0.0,-9.38,-10.52,0.45
50,0.027999999,-0.03,-0.07,-0.17,-10.91,-12.61,0.0,-9.41,-10.58,0.46
51,0.025999999,-0.13,-0.04,-0.04,-10.64,-11.95,0.0,-9.47,-10.61,0.48
52,0.027999999,-0.11,0.03,0.0,-10.24,-12.02,0.0,-9.5,-10.6,0.51
53,0.027,0.02,-0.11,0.04,-10.94,-12.63,0.0,-9.61,-10.7,0.55
54,0.025999999,0.0,-0.16,-0.06,-11.26,-12.64,0.0,-9.7,-10.77,0.57
55,0.027999999,-0.05,-0.04,0.02,-10.62,-12.31,0.0,-9.76,-10.81,0.59
56,0.025999999,-0.1,0.06,0.0,-10.11,-12.09,0.0,-9.8,-10.9,0.6
57,0.027,-0.1,0.02,-0.17,-10.49,-12.27,0.0,-9.84,-11.01,0.61
58,0.027999999,-0.11,-0.03,0.07,-10.51,-11.97,0.0,-9.9,-11.14,0.62
59,0.025999999,-0.03,-0.1,0.03,-10.87,-12.4,0.0,-9.91,-11.22,0.63
60,0.027,-0.09,0.02,-0.17,-10.49,-12.31,0.0,-9.92,-11.3,0.62
61,0.027999999,-0.13,0.01,-0.25,-10.63,-12.19,0.0,-9.91,-11.35,0.57
62,0.025999999,-0.1,0.11,-0.21,-10.06,-12.32,0.0,-9.87,-11.36,0.54
63,0.027999999,-0.06,0.13,-0.15,-9.89,-12.47,0.0,-9.87,-11.43,0.54
64,0.027,-0.09,0.23,0.1,-9.15,-12.06,0.0,-9.76,-11.35,0.56
65,0.025999999,0.02,0.01,0.11,-10.25,-12.59,0.0,-9.74,-11.39,0.59
66,0.027,0.01,-0.02,0.13,-10.36,-12.51,0.0,-9.77,-11.53,0.6
67,0.025999999,-0.01,-0.02,0.15,-10.39,-12.37,0.0,-9.77,-11.6,0.62
68,0.027,-0.01,-0.1,0.17,-10.76,-12.36,0.0,-9.7,-11.6,0.62
69,0.027,0.02,0.06,0.15,-9.96,-12.52,0.0,-9.65,-11.61,0.64
70,0.025999999,-0.01,-0.0,0.07,-10.36,-12.49,0.0,-9.54,-11.62,0.67
71,0.027999999,-0.07,0.03,-0.16,-10.39,-12.44,0.0,-9.43,-11.63,0.7
72,0.027,-0.05,0.08,-0.22,-10.21,-12.62,0.0,-9.32,-11.56,0.71
73,0.025999999,-0.3,0.49,-0.4,-8.22,-11.58,0.0,-8.89,-11.22,0.73
74,0.027,-0.04,0.21,1.02,-8.57,-11.37,0.0,-8.62,-11.3,0.74
75,0.025999999,-0.4,0.5,-0.02,-7.88,-10.63,0.0,-8.15,-11.07,0.82
76,0.027,-0.06,0.92,-0.82,-6.06,-13.42,0.0,-7.52,-10.8,0.95
77,0.025999999,-0.35,0.53,-0.52,-8.1,-11.45,0.0,-7.21,-10.75,1.0
78,0.025999999,-0.3,0.68,-0.15,-7.04,-11.34,0.0,-6.81,-10.52,1.06
79,0.027,-0.4,0.65,0.39,-6.87,-10.29,0.0,-6.48,-10.28,1.21
80,0.027,-0.4,0.69,0.06,-6.85,-10.59,0.0,-6.13,-10.06,1.34
81,0.025999999,-0.37,0.71,0.21,-6.65,-10.63,0.0,-5.82,-9.93,1.41
82,0.025999999,-0.33,0.7,0.39,-6.6,-10.65,0.0,-5.63,-9.94,1.47
83,0.025,-0.41,0.69,0.37,-6.64,-10.27,0.0,-5.39,-9.87,1.53
84,0.027,-0.48,0.8,0.19,-6.22,-10.09,0.0,-5.11,-9.83,1.6
85,0.025999999,-0.3,0.86,0.14,-5.9,-11.07,0.0,-4.78,-9.74,1.7
86,0.025,-0.51,0.9,-0.24,-5.89,-10.32,0.0,-4.31,-9.44,1.73
87,0.027,-0.61,1.07,0.36,-4.73,-9.29,0.0,-3.78,-9.14,1.8
88,0.025,-0.49,1.01,0.22,-5.13,-10.0,0.0,-3.51,-9.01,1.88
89,0.027,-0.64,1.14,0.21,-4.46,-9.23,0.0,-3.21,-8.88,1.91
90,0.025999999,-0.64,1.31,0.42,-3.48,-9.09,0.0,-2.89,-8.83,1.99
91,0.025,-0.56,1.18,0.36,-4.18,-9.53,0.0,-2.56,-8.74,2.07
92,0.025999999,-0.74,1.21,0.28,-4.05,-8.67,0.0,-2.24,-8.48,2.12
93,0.025,-0.65,1.31,0.38,-3.51,-9.07,0.0,-2.03,-8.34,2.16
94,0.025999999,-0.58,1.38,0.77,-3.02,-9.12,0.0,-1.75,-8.19,2.19
95,0.025999999,-0.73,1.6,0.16,-2.03,-8.85,0.0,-1.43,-8.1,2.23
96,0.025999999,-0.66,1.56,0.25,-2.24,-9.13,0.0,-1.21,-8.16,2.25
97,0.025999999,-0.74,1.75,0.45,-1.24,-8.58,0.0,-1.01,-8.14,2.28
98,0.025,-0.75,1.71,0.41,-1.42,-8.58,0.0,-0.88,-8.07,2.28
99,0.025999999,-0.77,1.65,0.28,-1.76,-8.56,0.0,-0.86,-8.1,2.29
100,0.025999999,-0.83,1.69,0.34,-1.55,-8.22,0.0,-0.79,-8.08,2.33
101,0.025,-0.76,1.67,0.36,-1.67,-8.56,0.0,-0.67,-8.0,2.31
102,0.025999999,-0.87,1.82,0.41,-0.85,-7.96,0.0,-0.48,-7.92,2.37
103,0.025999999,-0.84,1.75,0.02,-1.25,-8.39,0.0,-0.21,-7.83,2.39
104,0.025999999,-0.87,1.78,0.37,-1.08,-7.97,0.0,0.19,-7.65,2.45
105,0.025999999,-0.9,1.79,0.05,-1.05,-8.04,0.0,0.54,-7.54,2.48
106,0.025,-0.75,1.75,0.22,-1.23,-8.68,0.0,0.72,-7.47,2.49
107,0.025999999,-0.82,1.85,0.32,-0.71,-8.27,0.0,0.89,-7.38,2.47
108,0.025999999,-0.86,2.01,0.42,0.1,-8.01,0.0,1.0,-7.35,2.44
109,0.025,-0.77,1.9,0.62,-0.46,-8.3,0.0,1.07,-7.31,2.42
110,0.027,-0.9,2.11,0.49,0.6,-7.74,0.0,1.22,-7.22,2.4
111,0.024,-0.93,2.25,0.2,1.36,-7.77,0.0,1.19,-7.26,2.41
112,0.025999999,-0.98,2.2,0.19,1.11,-7.54,0.0,1.21,-7.22,2.43
113,0.025,-0.87,2.04,0.44,0.26,-7.9,0.0,1.23,-7.18,2.43
114,0.025999999,-0.91,2.1,0.5,0.58,-7.7,0.0,1.29,-7.16,2.42
115,0.025999999,-0.9,2.01,0.57,0.11,-7.7,0.0,1.31,-7.17,2.42
116,0.025,-0.97,2.15,0.38,0.83,-7.43,0.0,1.38,-7.12,2.4
117,0.025999999,-0.92,2.19,0.24,1.06,-7.82,0.0,1.47,-7.1,2.4
118,0.025,-1.06,2.17,0.38,0.94,-7.02,0.0,1.48,-7.12,2.38
119,0.025,-0.92,2.13,0.3,0.76,-7.77,0.0,1.62,-7.07,2.36
120,0.025999999,-0.92,2.15,0.31,0.86,-7.75,0.0,1.79,-7.05,2.35
121,0.025,-0.94,2.31,0.31,1.7,-7.64,0.0,2.03,-7.02,2.35
122,0.025999999,-0.95,2.33,0.4,1.77,-7.54,0.0,2.28,-6.98,2.34
123,0.025,-1.13,2.52,0.49,2.74,-6.56,0.0,2.54,-6.85,2.34
124,0.025999999,-1.11,2.52,0.16,2.84,-6.87,0.0,2.75,-6.82,2.39
125,0.025999999,-1.01,2.06,1.37,0.34,-6.67,0.0,2.83,-6.76,2.42
126,0.025,-1.05,2.5,0.54,2.62,-6.92,0.0,3.07,-6.65,2.45
127,0.025999999,-0.99,2.36,0.12,1.97,-7.55,0.0,3.3,-6.55,2.51
128,0.024,-1.02,2.38,0.54,2.0,-7.1,0.0,3.49,-6.4,2.52
129,0.025999999,-1.09,2.6,0.72,3.06,-6.62,0.0,3.67,-6.36,2.53
130,0.025999999,-1.08,2.44,0.25,2.38,-6.94,0.0,3.75,-6.29,2.54
131,0.025,-1.09,2.65,0.21,3.48,-6.92,0.0,3.91,-6.22,2.55
132,0.025999999,-1.06,2.63,0.41,3.29,-6.95,0.0,4.03,-6.16,2.58
133,0.025,-1.11,2.73,0.53,3.77,-6.63,0.0,4.2,-6.1,2.62
134,0.025999999,-1.24,2.75,0.62,3.86,-5.91,0.0,4.41,-6.08,2.69
135,0.025999999,-1.15,2.53,0.22,2.86,-6.61,0.0,4.55,-6.12,2.77
136,0.024,-1.01,2.62,0.27,3.3,-7.32,0.0,4.7,-6.09,2.81
137,0.025999999,-1.32,3.08,0.36,5.7,-5.64,0.0,4.96,-5.86,2.87
138,0.025,-1.25,2.76,-0.07,4.17,-6.23,0.0,5.07,-5.79,2.89
139,0.025999999,-1.23,2.88,0.37,4.61,-6.11,0.0,5.15,-5.7,2.88
140,0.025999999,-1.33,3.01,0.42,5.26,-5.54,0.0,5.18,-5.68,2.91
141,0.025,-1.18,2.9,0.22,4.77,-6.47,0.0,5.13,-5.74,2.92
142,0.025999999,-1.26,2.96,0.28,5.1,-5.97,0.0,5.18,-5.7,2.92
143,0.025,-1.26,3.05,0.29,5.57,-5.96,0.0,5.21,-5.7,2.97
144,0.025999999,-1.12,2.85,0.39,4.44,-6.64,0.0,5.18,-5.72,3.01
145,0.025999999,-1.22,3.04,0.39,5.44,-6.13,0.0,5.23,-5.63,3.03
146,0.025,-1.3,3.0,0.62,5.14,-5.61,0.0,5.29,-5.56,3.09
147,0.025,-1.33,2.96,0.34,5.04,-5.58,0.0,5.27,-5.58,3.16
148,0.025,-1.22,2.85,0.32,4.49,-6.17,0.0,5.18,-5.62,3.22
149,0.025999999,-1.25,2.94,0.3,4.96,-6.05,0.0,5.14,-5.62,3.25
150,0.025999999,-1.24,3.12,0.46,5.83,-5.97,0.0,5.2,-5.57,3.3
151,0.025,-1.29,2.86,0.39,4.51,-5.79,0.0,5.22,-5.54,3.34
152,0.025999999,-1.38,2.98,0.12,5.27,-5.44,0.0,5.26,-5.49,3.42
153,0.025,-1.22,2.84,0.52,4.38,-6.07,0.0,5.27,-5.48,3.47
154,0.025999999,-1.38,3.05,0.43,5.47,-5.27,0.0,5.43,-5.43,3.53
155,0.025999999,-1.26,3.0,0.23,5.31,-6.02,0.0,5.65,-5.4,3.62
156,0.024,-1.3,3.02,0.12,5.48,-5.86,0.0,5.83,-5.32,3.68
157,0.025999999,-1.35,3.07,0.42,5.6,-5.42,0.0,5.93,-5.24,3.71
158,0.025,-1.4,3.16,0.41,6.08,-5.2,0.0,5.98,-5.19,3.72
159,0.025999999,-1.42,3.12,0.57,5.79,-5.0,0.0,6.04,-5.08,3.74
160,0.025999999,-1.36,3.09,0.2,5.79,-5.48,0.0,6.06,-5.07,3.77
161,0.025,-1.32,3.11,0.37,5.84,-5.6,0.0,6.04,-5.08,3.79
162,0.025999999,-1.44,3.16,0.24,6.14,-5.06,0.0,6.07,-4.99,3.82
163,0.025,-1.34,3.19,0.3,6.25,-5.55,0.0,6.04,-4.97,3.86
164,0.025,-1.28,3.17,0.42,6.09,-5.81,0.0,6.01,-5.0,3.89
165,0.025999999,-1.39,3.13,0.31,5.94,-5.3,0.0,5.98,-4.99,3.94
166,0.025,-1.37,3.1,0.47,5.73,-5.31,0.0,5.92,-4.99,3.98
167,0.025999999,-1.41,3.09,0.31,5.74,-5.19,0.0,5.85,-5.01,4.02
168,0.025,-1.43,3.02,0.54,5.26,-5.0,0.0,5.79,-5.01,4.05
169,0.025999999,-0.89,3.11,0.17,5.91,-7.96,0.0,5.94,-4.99,4.09
170,0.025999999,-1.4,3.13,0.29,5.99,-5.25,0.0,5.89,-4.99,4.13
171,0.025,-1.41,3.05,0.08,5.67,-5.33,0.0,5.81,-4.95,4.17
172,0.025999999,-1.4,3.08,0.23,5.73,-5.29,0.0,5.67,-4.93,4.2
173,0.024,-1.52,3.06,0.0,5.78,-4.76,0.0,5.48,-4.9,4.24
174,0.025999999,-1.46,3.15,0.61,5.91,-4.82,0.0,5.47,-4.65,4.29
175,0.025,-1.43,2.64,0.19,3.46,-5.14,0.0,5.33,-4.61,4.35
176,0.025999999,-1.65,3.1,0.18,5.87,-3.99,0.0,5.11,-4.62,4.45
177,0.025999999,-1.52,2.95,0.59,4.9,-4.52,0.0,4.97,-4.55,4.51
178,0.025,-1.22,2.7,0.64,3.63,-5.99,0.0,4.83,-4.54,4.6
179,0.025999999,-1.28,2.82,0.61,4.25,-5.71,0.0,4.74,-4.5,4.64
180,0.025,-1.5,2.85,0.28,4.52,-4.76,0.0,4.62,-4.46,4.67
181,0.025,-1.48,2.92,0.39,4.86,-4.79,0.0,4.51,-4.37,4.71
182,0.025999999,-1.39,2.86,0.39,4.54,-5.27,0.0,4.29,-4.39,4.74
183,0.025,-1.48,2.54,0.38,2.89,-4.8,0.0,4.22,-4.27,4.73
184,0.025999999,-1.67,3.04,-0.35,5.85,-4.09,0.0,4.1,-3.95,4.73
185,0.025,-1.69,3.03,0.24,5.47,-3.78,0.0,4.04,-3.86,4.77
186,0.027,-1.63,2.96,0.46,5.0,-3.98,0.0,4.0,-3.71,4.83
187,0.025999999,-1.61,2.78,0.45,4.1,-4.13,0.0,3.8,-3.78,4.85
188,0.025,-1.75,2.92,0.07,5.02,-3.5,0.0,3.77,-3.65,4.88
189,0.025999999,-1.98,2.5,0.31,2.68,-2.23,0.0,3.53,-3.58,4.94
190,0.025,-1.41,3.15,-0.22,6.37,-5.45,0.0,3.32,-3.56,4.87
191,0.027,-1.85,2.65,0.24,3.49,-2.92,0.0,3.24,-3.45,4.92
192,0.025999999,-1.79,2.61,-0.12,3.41,-3.33,0.0,3.11,-3.33,4.94
193,0.025,-1.67,2.48,0.4,2.57,-3.8,0.0,2.95,-3.19,4.97
194,0.025999999,-1.85,2.51,-0.07,2.84,-3.04,0.0,2.74,-3.11,4.93
195,0.027,-1.9,2.48,0.08,2.66,-2.72,0.0,2.57,-2.96,4.9
196,0.025,-1.79,2.59,0.55,3.11,-3.17,0.0,2.41,-2.86,4.84
197,0.025999999,-1.94,2.8,0.13,4.31,-2.47,0.0,2.36,-2.7,4.81
198,0.025,-1.71,2.46,1.1,2.3,-3.41,0.0,2.25,-2.72,4.8
199,0.025999999,-1.9,2.52,0.22,2.79,-2.66,0.0,2.13,-2.63,4.77
200,0.025999999,-1.85,2.64,0.54,3.35,-2.87,0.0,2.03,-2.58,4.77
201,0.025,-1.9,2.48,0.11,2.65,-2.7,0.0,1.93,-2.46,4.75
202,0.027,-1.97,2.54,0.68,2.82,-2.23,0.0,1.82,-2.25,4.72
203,0.025,-1.93,2.54,0.87,2.75,-2.38,0.0,1.64,-2.2,4.76
204,0.025999999,-2.02,2.48,0.42,2.57,-1.99,0.0,1.53,-2.19,4.8
205,0.025999999,-1.91,2.13,0.61,0.73,-2.55,0.0,1.43,-2.09,4.82
206,0.025,-1.97,2.17,0.78,0.93,-2.19,0.0,1.39,-1.96,4.8
207,0.025999999,-1.93,2.3,0.68,1.6,-2.4,0.0,1.41,-1.86,4.78
208,0.025,-2.07,2.3,0.55,1.63,-1.74,0.0,1.45,-1.75,4.78
209,0.027,-1.94,2.16,0.21,0.91,-2.46,0.0,1.46,-1.7,4.77
210,0.025999999,-2.13,2.41,0.45,2.18,-1.44,0.0,1.52,-1.56,4.72
211,0.025,-2.37,2.5,0.26,2.72,-0.16,0.0,1.58,-1.37,4.76
212,0.025999999,-2.13,2.29,0.18,1.61,-1.48,0.0,1.53,-1.27,4.73
213,0.025,-1.97,2.44,0.82,2.25,-2.2,0.0,1.56,-1.13,4.7
214,0.025999999,-2.23,2.59,0.41,3.12,-0.92,0.0,1.63,-0.98,4.7
215,0.025999999,-2.18,2.34,0.17,1.89,-1.19,0.0,1.61,-0.95,4.73
216,0.025,-2.13,2.37,0.27,2.04,-1.42,0.0,1.67,-0.9,4.75
217,0.027,-2.16,2.32,0.21,1.78,-1.27,0.0,1.69,-0.77,4.75
218,0.025,-2.22,2.36,0.44,1.95,-0.96,0.0,1.65,-0.72,4.77
219,0.025999999,-2.16,2.38,0.65,1.99,-1.26,0.0,1.61,-0.72,4.77
220,0.025999999,-2.21,2.37,0.42,1.98,-0.98,0.0,1.62,-0.71,4.82
221,0.025,-2.3,2.4,0.01,2.2,-0.57,0.0,1.61,-0.65,4.84
222,0.025999999,-2.2,2.37,0.61,1.96,-1.05,0.0,1.64,-0.57,4.88
223,0.025,-2.23,2.22,0.43,1.18,-0.88,0.0,1.64,-0.53,4.89
224,0.027,-2.21,2.32,0.6,1.72,-0.97,0.0,1.66,-0.52,4.9
225,0.025999999,-2.19,2.34,0.25,1.87,-1.1,0.0,1.73,-0.46,4.91
226,0.025,-2.3,2.46,0.4,2.49,-0.55,0.0,1.73,-0.47,4.91
227,0.025999999,-2.2,2.17,0.43,0.96,-1.03,0.0,1.68,-0.47,4.9
228,0.025,-2.19,2.33,0.29,1.79,-1.1,0.0,1.66,-0.5,4.91
229,0.025999999,-2.21,2.36,0.31,1.94,-1.01,0.0,1.69,-0.48,4.89
230,0.025999999,-2.26,2.44,0.61,2.33,-0.72,0.0,1.76,-0.42,4.89
231,0.025999999,-2.27,2.34,0.36,1.84,-0.7,0.0,1.72,-0.44,4.89
232,0.025999999,-2.3,2.44,0.49,2.33,-0.53,0.0,1.77,-0.43,4.9
233,0.025,-2.29,2.33,0.26,1.82,-0.62,0.0,1.79,-0.42,4.91
234,0.025999999,-2.28,2.3,0.38,1.65,-0.65,0.0,1.8,-0.42,4.91
235,0.025999999,-2.34,2.41,0.36,2.21,-0.31,0.0,1.78,-0.44,4.92
236,0.025,-2.3,2.38,0.37,2.07,-0.51,0.0,1.77,-0.46,4.93
237,0.025999999,-2.35,2.36,0.28,1.97,-0.28,0.0,1.79,-0.38,4.91
238,0.025999999,-2.27,2.46,0.35,2.5,-0.72,0.0,1.8,-0.38,4.91
239,0.025999999,-2.24,2.4,0.11,2.18,-0.89,0.0,1.88,-0.36,4.93
240,0.025999999,-2.36,2.36,0.24,1.98,-0.25,0.0,1.88,-0.33,4.94
241,0.025,-2.39,2.44,0.28,2.4,-0.05,0.0,1.9,-0.28,4.95
242,0.025999999,-2.13,2.28,0.96,1.46,-1.34,0.0,1.95,-0.21,4.98
243,0.025,-2.24,2.32,0.51,1.69,-0.85,0.0,1.95,-0.16,4.96
244,0.025999999,-2.44,2.55,0.3,2.97,0.21,0.0,2.03,-0.02,4.95
245,0.025999999,-2.39,2.58,0.47,3.09,-0.09,0.0,2.04,0.01,5.0
246,0.025,-2.35,2.34,0.52,1.82,-0.28,0.0,2.01,0.02,5.02
247,0.025999999,-2.26,2.45,0.21,2.44,-0.75,0.0,1.95,-0.08,5.06
248,0.025,-2.32,2.44,0.57,2.3,-0.41,0.0,1.91,-0.14,5.11
249,0.025999999,-2.43,2.45,0.21,2.45,0.15,0.0,1.86,-0.2,5.15
250,0.025999999,-2.28,2.5,0.33,2.69,-0.67,0.0,1.74,-0.3,5.22
251,0.025,-2.24,2.29,0.41,1.57,-0.85,0.0,1.59,-0.49,5.29
252,0.025999999,-2.1,2.25,0.74,1.34,-1.51,0.0,1.36,-0.77,5.35
253,0.027,-2.02,2.2,0.82,1.07,-1.92,0.0,0.86,-1.55,5.37
254,0.025,-1.98,1.95,0.32,-0.2,-2.23,0.0,0.31,-2.09,5.4
255,0.025999999,-2.04,2.06,0.63,0.38,-1.84,0.0,-0.32,-2.91,5.38
256,0.025,-2.67,2.89,-0.47,5.09,1.51,0.0,-0.78,-3.42,5.25
257,0.027,-1.66,1.79,-0.02,-1.05,-4.05,0.0,-1.21,-4.15,5.15
258,0.025999999,-1.35,1.68,1.05,-1.54,-5.16,0.0,-1.65,-5.15,4.94
259,0.025,-1.32,1.71,0.36,-1.46,-5.66,0.0,-2.14,-6.47,4.61
260,0.027,-1.19,1.52,-0.1,-2.55,-6.59,0.0,-2.74,-7.85,4.22
261,0.025,-0.92,1.74,1.87,-1.16,-6.79,0.0,-3.29,-9.33,3.97
262,0.025999999,-0.44,1.38,0.57,-3.1,-9.97,0.0,-3.7,-10.86,3.67
263,0.025999999,-0.41,1.15,0.18,-4.38,-10.47,0.0,-4.24,-12.76,3.28
264,0.025999999,-0.46,1.48,-0.21,-2.77,-10.63,0.0,-4.6,-14.17,3.08
265,0.027,0.46,1.08,0.29,-4.6,-14.71,0.0,-5.04,-15.59,2.92
266,0.025999999,0.4,1.34,0.05,-3.37,-14.75,0.0,-5.39,-17.14,2.73
267,0.027,0.79,0.99,0.12,-5.11,-16.57,0.0,-5.75,-19.05,2.51
268,0.025999999,1.1,1.04,-0.37,-5.04,-18.89,0.0,-6.17,-20.76,2.41
269,0.025999999,1.73,0.97,0.04,-5.12,-21.19,0.0,-6.37,-22.45,2.34
270,0.027,2.0,0.81,-0.02,-5.89,-22.54,0.0,-6.53,-24.3,2.19
271,0.027,1.8,1.27,-1.2,-4.02,-24.1,0.0,-6.61,-26.09,2.06
272,0.025999999,2.28,1.07,-0.43,-4.68,-24.71,0.0,-6.74,-27.54,2.02
273,0.027,3.07,1.03,0.23,-4.54,-26.78,0.0,-6.59,-29.49,1.99
274,0.025999999,2.57,0.82,-1.47,-6.43,-28.47,0.0,-6.36,-31.39,1.92
275,0.027,3.02,0.94,-1.65,-5.76,-31.15,0.0,-6.22,-32.99,1.92
276,0.027,4.21,3.65,-6.87,12.34,-58.47,0.0,-4.71,-35.56,1.93
277,0.027,4.14,0.9,-0.74,-5.29,-33.49,0.0,-4.33,-37.63,1.57
278,0.027,3.69,1.2,-2.03,-4.29,-35.39,0.0,-3.87,-39.67,1.3
279,0.027,4.35,1.36,-2.19,-3.33,-38.79,0.0,-3.61,-41.54,1.18
280,0.025999999,4.95,1.03,-1.89,-4.79,-40.11,0.0,-3.36,-43.32,1.0
281,0.027,4.62,1.42,-2.53,-3.07,-41.08,0.0,-3.02,-45.24,0.72
282,0.025999999,5.0,1.47,-2.42,-2.7,-42.21,0.0,-2.71,-46.95,0.55
283,0.027,5.02,1.62,-3.27,-2.05,-45.45,0.0,-2.48,-48.63,0.47
284,0.027999999,5.29,1.57,-3.81,-2.37,-48.62,0.0,-2.34,-50.18,0.45
285,0.025999999,5.89,1.3,-3.49,-3.63,-49.36,0.0,-2.24,-51.59,0.31
286,0.027,5.49,1.52,-4.21,-2.66,-51.06,0.0,-2.02,-52.9,0.18
287,0.027,5.88,1.58,-3.8,-2.16,-50.68,0.0,-1.78,-54.06,0.03
288,0.025999999,5.54,1.71,-4.71,-1.64,-53.54,0.0,-1.54,-55.06,-0.07
289,0.027999999,5.8,1.72,-4.57,-1.5,-53.77,0.0,-1.41,-55.86,-0.09
290,0.027,6.15,1.57,-4.66,-2.31,-55.27,0.0,-1.43,-56.64,-0.11
291,0.027,6.27,1.57,-4.52,-2.27,-55.02,0.0,-1.41,-57.35,-0.24
292,0.027999999,6.17,1.51,-4.93,-2.67,-56.6,0.0,-1.37,-58.01,-0.38
293,0.025999999,6.57,1.7,-4.39,-1.52,-55.4,0.0,-1.45,-58.58,-0.57
294,0.027999999,6.29,1.87,-4.95,-0.64,-57.11,0.0,-1.36,-59.13,-0.69
295,0.027999999,6.41,1.77,-5.2,-1.21,-58.63,0.0,-1.38,-59.69,-0.88
296,0.025999999,6.21,2.11,-5.21,0.7,-58.13,0.0,-1.36,-60.1,-1.02
297,0.027999999,6.59,2.09,-4.74,0.54,-57.05,0.0,-1.35,-60.51,-1.15
298,0.027,6.56,2.22,-5.15,1.24,-58.83,0.0,-1.14,-60.98,-1.15
299,0.027,7.14,1.51,-5.24,-2.52,-60.73,0.0,-0.87,-61.53,-1.19
300,0.027,6.6,1.97,-5.48,-0.12,-60.5,0.0,-0.6,-62.1,-1.22
301,0.027,6.78,1.85,-5.5,-0.75,-61.08,0.0,-0.54,-62.63,-1.19
302,0.027999999,6.77,1.69,-5.71,-1.64,-62.03,0.0,-0.49,-63.13,-1.21
303,0.027,6.8,1.68,-5.61,-1.69,-61.62,0.0,-0.56,-63.51,-1.25
304,0.027,6.88,2.05,-5.57,0.31,-61.71,0.0,-0.46,-63.8,-1.33
305,0.027,6.83,1.98,-5.69,-0.07,-62.14,0.0,-0.35,-63.89,-1.41
306,0.027999999,6.8,2.03,-5.66,0.22,-61.95,0.0,-0.35,-64.0,-1.47
307,0.025999999,6.78,2.18,-5.96,1.04,-63.33,0.0,-0.2,-64.05,-1.45
308,0.027999999,6.93,1.88,-6.1,-0.61,-64.39,0.0,-0.12,-64.07,-1.45
309,0.027999999,6.85,1.88,-5.94,-0.62,-63.4,0.0,-0.11,-64.0,-1.48
310,0.025999999,6.9,2.04,-5.93,0.3,-63.49,0.0,-0.07,-63.9,-1.51
311,0.027999999,6.89,2.02,-5.58,0.19,-61.76,0.0,0.0,-63.7,-1.5
312,0.025999999,6.75,2.13,-6.09,0.82,-63.9,0.0,0.15,-63.39,-1.42
313,0.027,7.07,1.92,-5.21,-0.35,-60.48,0.0,0.27,-62.8,-1.27
314,0.027,6.73,2.13,-5.96,0.78,-63.21,0.0,0.34,-62.3,-1.18
315,0.025999999,6.11,2.45,-6.55,2.82,-64.57,0.0,0.89,-61.09,-0.93
316,0.027999999,6.36,1.91,-5.41,-0.43,-59.5,0.0,1.42,-58.88,-0.42
317,0.027,5.9,1.9,-5.31,-0.49,-57.66,0.0,1.74,-55.96,0.37
318,0.025999999,6.93,1.3,-2.99,-3.28,-50.81,0.0,0.98,-54.04,0.75
319,0.027999999,5.99,1.56,-4.4,-2.34,-53.62,0.0,0.06,-52.33,1.05
320,0.025999999,4.96,1.35,-5.6,-4.1,-55.76,0.0,-0.94,-49.8,1.46
321,0.027,4.78,1.27,-5.34,-4.65,-53.67,0.0,-1.54,-45.68,2.25
322,0.027,5.04,0.74,-2.02,-6.3,-40.74,0.0,-2.2,-41.47,3.06
323,0.025999999,5.23,1.79,0.01,-0.89,-35.82,0.0,-3.26,-39.75,3.51
324,0.027,4.31,1.02,-1.97,-5.09,-37.81,0.0,-4.07,-38.14,4.09
325,0.027,4.42,0.51,-2.06,-7.71,-38.29,0.0,-4.6,-36.49,4.51
326,0.025999999,4.47,-0.07,-2.09,-10.66,-38.24,0.0,-5.0,-35.0,4.62
327,0.027999999,3.81,1.03,-1.21,-4.86,-33.46,0.0,-5.29,-33.71,4.66
328,0.027,3.76,1.17,-1.25,-4.2,-33.37,0.0,-5.16,-32.89,4.67
329,0.025999999,3.64,1.06,-1.17,-4.75,-32.61,0.0,-5.01,-32.48,4.56
330,0.027,3.64,1.06,-0.94,-4.67,-31.98,0.0,-4.84,-32.13,4.48
331,0.025999999,2.83,1.74,-1.37,-1.36,-29.64,0.0,-4.49,-31.41,4.7
332,0.027999999,3.39,0.63,-1.53,-7.19,-32.38,0.0,-4.31,-30.8,5.27
333,0.027,2.75,1.3,-2.47,-4.12,-32.39,0.0,-3.64,-30.35,5.79
334,0.025999999,3.4,0.5,-1.82,-8.07,-33.18,0.0,-2.37,-29.5,5.82
335,0.027,3.1,1.14,-1.32,-4.5,-30.66,0.0,-0.93,-28.31,5.76
336,0.027,2.83,1.08,-1.07,-4.8,-28.75,0.0,0.2,-27.47,5.75
337,0.025999999,2.6,1.47,-1.01,-2.76,-27.58,0.0,1.46,-26.56,5.63
338,0.027,2.31,1.65,-1.4,-1.86,-27.17,0.0,3.02,-25.14,5.31
339,0.027,2.44,2.11,-0.33,0.61,-25.3,0.0,3.28,-24.65,5.22
340,0.027,2.27,2.07,-1.06,0.47,-26.18,0.0,3.83,-23.89,4.92
341,0.025999999,1.94,2.55,-0.24,2.89,-22.79,0.0,4.87,-22.8,4.44
342,0.025999999,1.7,2.52,-0.74,2.87,-22.62,0.0,6.01,-21.4,4.0
343,0.027,1.66,2.5,-0.35,2.66,-21.67,0.0,6.81,-19.66,3.52
344,0.027,2.05,2.54,0.65,2.61,-21.64,0.0,6.85,-18.18,2.94
345,0.025,0.57,2.98,-1.61,5.98,-18.25,0.0,6.52,-17.18,2.68
346,0.027,0.46,2.79,-0.79,4.48,-16.25,0.0,6.09,-15.87,2.34
347,0.025,0.87,2.7,0.33,3.6,-16.7,0.0,5.39,-14.66,2.33
348,0.027,0.85,2.67,-1.34,3.97,-19.34,0.0,4.68,-14.34,2.58
349,0.025999999,-0.11,2.82,0.12,4.36,-12.09,0.0,4.01,-12.71,2.67
350,0.025999999,-0.48,2.81,0.27,4.26,-10.05,0.0,3.46,-10.88,2.9
351,0.025999999,-0.67,2.97,0.83,4.86,-8.63,0.0,3.17,-9.2,3.21
352,0.025,-0.44,2.12,0.65,0.65,-9.92,0.0,2.77,-7.92,3.42
353,0.025999999,-0.13,2.27,0.81,1.38,-11.3,0.0,2.38,-7.13,3.61
354,0.025999999,-1.15,2.89,0.47,4.65,-6.47,0.0,2.19,-6.04,3.8
355,0.025,-1.71,2.63,0.77,3.21,-3.47,0.0,2.17,-5.19,4.06
356,0.025999999,-1.52,2.32,0.49,1.73,-4.55,0.0,2.3,-4.27,4.37
357,0.025,-1.49,2.38,0.87,1.95,-4.54,0.0,2.25,-4.11,4.22
358,0.025999999,-1.91,2.29,0.16,1.62,-2.63,0.0,2.14,-3.83,4.15
359,0.025,-2.09,2.26,0.44,1.42,-1.64,0.0,2.03,-3.71,4.28
360,0.025,-0.9,2.12,-0.37,0.72,-8.39,0.0,1.74,-3.8,4.51
361,0.025999999,-1.23,1.61,1.1,-1.86,-5.75,0.0,1.58,-3.32,4.29
362,0.025999999,-1.17,1.94,1.28,-0.23,-5.96,0.0,1.64,-3.14,4.14
363,0.025999999,-2.31,2.46,1.09,2.3,-0.45,0.0,2.2,-2.28,3.94
364,0.025999999,-1.91,2.09,0.46,0.52,-2.58,0.0,2.4,-2.19,4.05
365,0.025,-1.58,1.83,0.45,-0.81,-4.29,0.0,2.41,-2.07,3.97
366,0.027,-1.6,2.03,0.21,0.23,-4.24,0.0,2.27,-2.21,4.01
367,0.025,-2.91,2.59,-1.27,3.67,3.09,0.0,2.06,-1.53,4.08
368,0.025999999,-1.96,2.33,0.96,1.68,-2.21,0.0,1.67,-1.36,4.26
369,0.025999999,-2.84,2.83,4.43,3.2,1.68,0.0,2.43,0.98,4.07
370,0.025,-2.45,2.11,0.47,0.61,0.25,0.0,3.7,4.27,3.14
371,0.025,-2.26,3.26,0.18,6.73,-0.76,0.0,5.46,7.81,1.91
372,0.025,-2.95,3.5,-0.27,8.33,3.0,0.0,6.48,10.59,1.02
373,0.025999999,-4.34,3.76,0.23,9.15,10.05,0.0,6.67,12.85,0.36
374,0.025999999,-4.46,6.63,-0.91,25.18,10.88,0.0,7.64,13.95,0.27
375,0.025999999,-4.85,2.61,0.56,3.14,12.37,0.0,7.68,15.6,-0.32
376,0.027,-5.45,2.97,-0.74,5.46,17.13,0.0,7.85,16.98,-0.72
377,0.027,-5.38,3.17,-0.18,6.25,15.87,0.0,7.6,18.23,-0.95
378,0.025999999,-6.15,3.34,0.22,6.74,19.02,0.0,7.42,19.12,-0.75
379,0.025999999,-5.63,2.98,-0.13,5.21,17.09,0.0,7.05,20.24,-0.62
380,0.025999999,-5.63,2.7,-0.37,3.83,17.5,0.0,6.52,21.33,-0.32
381,0.027,-6.55,3.07,-0.85,5.87,22.98,0.0,6.16,22.76,0.1
382,0.025999999,-6.27,2.79,-0.44,4.22,20.85,0.0,5.86,24.04,0.48
383,0.025999999,-6.77,3.17,-0.82,6.3,23.97,0.0,5.67,25.02,0.94
384,0.025999999,-6.81,2.85,-0.72,4.55,24.05,0.0,5.54,25.81,1.19
385,0.025999999,-6.76,2.9,-1.03,4.94,24.47,0.0,5.09,26.27,1.48
386,0.025999999,-6.78,3.03,-0.97,5.62,24.38,0.0,4.91,26.74,1.68
387,0.025999999,-6.92,2.76,-0.95,4.16,25.09,0.0,4.68,27.34,1.94
388,0.025999999,-6.87,2.6,-1.2,3.38,25.43,0.0,4.39,27.72,2.02
389,0.025999999,-7.01,2.64,-1.23,3.58,26.19,0.0,4.18,28.08,2.0
390,0.025999999,-7.26,2.73,-1.4,4.06,27.85,0.0,3.87,28.57,2.04
391,0.025999999,-7.49,2.96,-1.09,5.18,28.1,0.0,3.59,29.0,2.13
392,0.025999999,-7.51,2.56,-0.92,3.0,27.86,0.0,3.44,29.84,2.38
393,0.025999999,-7.09,3.82,-4.05,12.83,34.68,0.0,5.86,33.83,2.93
394,0.025999999,-5.72,1.46,-1.39,-3.07,19.84,0.0,7.86,38.39,3.43
395,0.027,-7.64,2.69,-0.84,3.66,28.24,0.0,7.26,39.47,3.49
396,0.025,-8.16,2.05,-1.95,0.34,33.74,0.0,7.2,40.43,3.38
397,0.027,-8.77,3.36,-2.59,7.63,38.2,0.0,7.28,40.86,3.3
398,0.025,-9.05,3.24,-2.79,6.98,40.14,0.0,7.38,41.89,3.09
399,0.027,-9.09,3.76,-3.05,9.97,40.9,0.0,7.5,43.25,3.17
400,0.025999999,-9.08,3.74,-2.21,9.3,38.04,0.0,8.04,43.95,3.33
401,0.025,-8.55,1.29,-3.87,-4.38,42.38,0.0,7.96,45.9,3.17
402,0.027,-9.54,2.48,-3.29,2.74,44.38,0.0,8.54,48.0,3.24
403,0.025,-9.53,3.51,-3.46,8.57,44.42,0.0,8.79,49.72,3.12
404,0.027,-10.08,3.48,-3.86,8.34,48.15,0.0,8.8,50.67,3.0
405,0.025999999,-10.24,3.39,-3.86,7.72,48.82,0.0,8.87,51.49,2.93
406,0.025999999,-10.21,3.37,-4.96,8.15,53.51,0.0,9.02,52.96,2.84
407,0.027,-10.48,3.58,-4.27,8.83,51.22,0.0,9.02,54.03,2.81
408,0.025,-10.75,2.33,-5.99,2.04,61.18,0.0,8.94,55.84,2.83
409,0.027,-10.54,3.2,-4.71,6.91,53.67,0.0,8.91,56.9,2.88
410,0.027,-10.56,3.64,-5.28,9.64,55.83,0.0,9.2,57.88,2.95
411,0.025,-10.59,3.51,-5.14,8.78,55.48,0.0,9.18,58.4,2.98
412,0.027,-10.62,3.5,-5.62,8.95,57.77,0.0,9.21,59.36,2.97
413,0.027,-10.88,3.56,-5.23,8.89,56.75,0.0,9.15,60.13,2.9
414,0.025,-10.82,3.38,-5.66,8.15,58.79,0.0,9.06,61.03,2.92
415,0.027,-11.02,3.54,-5.64,8.91,59.06,0.0,8.97,61.66,3.02
416,0.025,-11.11,3.46,-5.81,8.43,60.26,0.0,9.02,62.18,3.14
417,0.027,-10.82,3.31,-6.18,7.94,61.42,0.0,9.04,62.65,3.24
418,0.027,-11.04,3.54,-5.96,9.01,60.63,0.0,9.1,63.06,3.31
419,0.025,-11.31,3.32,-6.68,7.78,65.23,0.0,8.97,64.26,3.58
420,0.027,-11.11,3.59,-6.78,9.55,64.71,0.0,8.98,64.87,3.77
421,0.025999999,-11.05,3.5,-6.27,8.88,62.21,0.0,8.97,65.27,3.9
422,0.025999999,-11.25,3.65,-6.41,9.63,63.13,0.0,9.07,65.68,4.04
423,0.027,-11.05,3.82,-6.15,10.66,61.07,0.0,9.2,65.82,4.14
424,0.025999999,-11.15,3.68,-6.42,9.9,62.9,0.0,9.26,65.81,4.24
425,0.027,-11.18,3.61,-6.56,9.51,63.76,0.0,9.22,65.88,4.25
426,0.025999999,-11.35,3.67,-6.32,9.63,62.95,0.0,9.22,65.85,4.22
427,0.025999999,-11.3,3.61,-6.56,9.41,64.09,0.0,9.23,65.8,4.25
428,0.025999999,-11.05,3.75,-6.49,10.46,62.82,0.0,9.38,65.77,4.23
429,0.025999999,-11.22,3.73,-6.52,10.15,63.45,0.0,9.43,65.48,4.2
430,0.027,-11.4,3.73,-6.43,9.96,63.5,0.0,9.51,65.21,4.2
431,0.027,-11.13,3.64,-6.44,9.74,63.0,0.0,9.58,64.84,4.21
432,0.025999999,-11.3,3.81,-6.38,10.51,62.82,0.0,9.56,64.35,4.09
433,0.025999999,-11.16,3.55,-6.12,9.05,61.72,0.0,9.53,63.67,4.07
434,0.025999999,-10.99,3.49,-5.95,8.74,60.52,0.0,9.29,62.72,3.95
435,0.027,-11.16,3.46,-6.07,8.52,61.59,0.0,9.17,61.4,3.76
436,0.025999999,-10.93,3.76,-5.72,10.26,58.81,0.0,9.21,60.12,3.67
437,0.025999999,-10.95,3.69,-5.61,9.74,58.48,0.0,8.98,58.59,3.47
438,0.027,-10.84,3.56,-5.02,8.86,55.66,0.0,8.86,56.9,3.38
439,0.027,-10.44,3.38,-5.86,8.51,58.56,0.0,8.55,55.37,3.25
440,0.025,-10.41,3.57,-5.01,9.24,54.19,0.0,8.15,53.92,3.04
441,0.027,-10.59,3.6,-4.28,8.87,51.59,0.0,7.65,51.99,3.02
442,0.025,-10.25,3.07,-4.3,6.13,50.97,0.0,7.03,49.97,3.09
443,0.027,-10.01,3.12,-4.15,6.5,49.4,0.0,6.24,48.28,3.11
444,0.027,-10.31,2.82,-4.24,4.69,51.09,0.0,5.29,46.43,3.12
445,0.025,-9.78,3.11,-3.13,6.13,44.43,0.0,4.58,44.68,3.05
446,0.027,-9.57,2.82,-3.62,4.74,45.7,0.0,3.71,43.03,2.94
447,0.025,-9.47,2.84,-3.14,4.72,43.39,0.0,2.89,41.78,2.77
448,0.027,-9.26,2.75,-2.62,4.17,40.64,0.0,2.27,40.53,2.67
449,0.025999999,-9.0,2.65,-2.52,3.63,39.25,0.0,1.62,39.2,2.63
450,0.025,-8.86,2.4,-2.11,2.23,37.33,0.0,0.85,37.94,2.83
451,0.027,-8.28,2.23,-2.31,1.38,35.43,0.0,-0.37,35.81,3.01
452,0.025999999,-8.46,2.22,-2.01,1.28,35.28,0.0,-1.57,33.81,3.06
453,0.025999999,-8.44,2.28,-1.43,1.5,33.44,0.0,-2.62,32.16,3.03
454,0.027,-9.46,2.54,-1.31,2.71,37.28,0.0,-3.53,30.55,2.72
455,0.025,-7.68,1.87,-1.61,-0.66,30.51,0.0,-3.93,29.15,2.34
456,0.027,-7.6,2.19,-1.45,1.11,29.7,0.0,-4.2,28.17,2.04
457,0.025999999,-7.21,1.58,-1.12,-2.18,26.97,0.0,-4.76,26.83,1.99
458,0.025999999,-7.23,1.49,-0.97,-2.65,26.65,0.0,-5.33,25.34,1.87
459,0.025999999,-7.34,1.85,-0.97,-0.76,27.22,0.0,-5.48,23.95,1.9
460,0.025999999,-6.99,1.55,-1.38,-2.47,26.5,0.0,-5.68,22.97,2.12
461,0.027,-6.44,1.26,-0.62,-3.88,22.03,0.0,-5.56,21.88,2.22
462,0.025999999,-6.72,1.46,-0.86,-2.86,23.95,0.0,-5.7,20.86,2.36
463,0.025999999,-5.96,1.01,-0.5,-5.26,19.36,0.0,-5.87,19.67,2.44
464,0.027,-6.2,1.28,-0.43,-3.77,20.48,0.0,-5.89,18.62,2.44
465,0.025999999,-6.19,1.38,-0.23,-3.16,20.09,0.0,-5.68,17.9,2.49
466,0.025999999,-5.97,1.36,-0.48,-3.37,19.43,0.0,-5.27,17.22,2.56
467,0.027,-5.65,1.17,-0.41,-4.41,17.69,0.0,-4.74,16.64,2.61
468,0.025,-5.54,1.38,-0.01,-3.15,16.52,0.0,-4.0,16.0,2.51
469,0.027,-5.7,1.76,-0.66,-1.25,18.4,0.0,-3.36,15.39,2.46
470,0.027,-5.05,1.49,-0.04,-2.62,14.09,0.0,-2.61,14.69,2.31
471,0.025,-5.46,1.93,-0.23,-0.31,16.46,0.0,-1.84,14.05,2.29
472,0.027,-5.05,1.95,-0.28,-0.22,14.43,0.0,-1.29,13.18,2.31
473,0.025,-4.77,1.76,-0.41,-1.25,13.11,0.0,-1.0,12.46,2.31
474,0.027,-4.53,1.74,-0.36,-1.35,11.77,0.0,-0.66,11.73,2.26
475,0.027,-4.7,2.02,-0.42,0.2,12.78,0.0,-0.21,11.64,2.18
476,0.025999999,-4.52,2.22,-0.77,1.34,12.19,0.0,-0.21,11.38,2.12
477,0.027,-4.56,2.17,0.34,0.91,11.18,0.0,-0.22,11.3,2.14
478,0.025999999,-4.96,2.48,0.41,2.52,13.11,0.0,-0.11,11.24,2.21
479,0.025,-4.92,2.24,0.31,1.28,13.02,0.0,-0.33,10.99,2.49
480,0.027,-4.47,1.48,0.66,-2.53,10.4,0.0,-0.44,10.37,2.81
481,0.025,-4.28,1.98,-0.21,-0.07,10.26,0.0,-0.27,9.6,3.0
482,0.027,-4.29,2.12,-0.62,0.72,10.74,0.0,-0.03,8.81,2.98
483,0.025999999,-3.93,1.99,-0.31,0.0,8.49,0.0,0.12,8.3,3.09
484,0.025,-3.84,2.05,0.38,0.3,7.49,0.0,0.25,7.91,3.14
485,0.025999999,-4.09,2.41,0.57,2.13,8.6,0.0,0.35,7.31,3.34
486,0.025,-3.93,2.4,-0.33,2.26,8.5,0.0,0.39,6.85,3.56
487,0.025,-3.69,2.31,0.1,1.72,6.85,0.0,0.59,5.9,3.79
488,0.025999999,-3.2,2.09,0.2,0.56,4.24,0.0,1.13,5.18,3.91
489,0.025,-3.31,2.51,0.6,2.64,4.65,0.0,1.5,4.39,4.09
490,0.025,-3.42,2.92,0.0,5.02,5.46,0.0,1.78,3.96,4.16
491,0.025,-3.62,3.05,0.62,5.39,6.18,0.0,1.98,3.83,4.26
492,0.025999999,-3.25,2.65,0.07,3.55,4.52,0.0,2.1,3.67,4.41
493,0.025,-3.36,2.71,0.62,3.66,4.9,0.0,2.39,3.75,4.52
494,0.025,-3.42,2.88,-0.12,4.87,5.53,0.0,2.54,4.05,4.66
495,0.025999999,-3.54,3.08,-0.25,6.03,6.24,0.0,2.35,3.98,4.52
496,0.025,-3.33,2.67,0.29,3.58,4.85,0.0,2.06,3.64,4.35
497,0.025,-3.21,2.34,-0.05,1.92,4.38,0.0,1.86,3.72,4.13
498,0.025,-3.54,2.57,0.6,2.99,5.81,0.0,1.69,3.79,3.97
499,0.025999999,-3.35,2.52,0.08,2.82,5.07,0.0,1.72,3.81,3.78
500,0.025,-3.35,2.17,0.71,0.92,4.78,0.0,1.7,4.03,3.74
501,0.025,-3.25,2.21,0.36,1.18,4.41,0.0,1.66,3.97,3.74
502,0.025999999,-3.23,1.87,0.09,-0.63,4.46,0.0,1.46,4.19,3.69
503,0.024,-3.38,2.5,0.57,2.61,4.99,0.0,0.98,4.02,3.46
504,0.025999999,-3.19,2.08,0.59,0.45,4.05,0.0,0.55,3.38,3.54
505,0.025999999,-3.19,2.0,0.02,0.04,4.25,0.0,0.6,3.21,3.57
506,0.024,-3.29,2.06,1.04,0.33,4.38,0.0,0.8,3.21,3.43
507,0.025999999,-3.49,1.95,0.15,-0.2,5.78,0.0,1.29,3.31,3.32
508,0.025,-3.45,2.66,0.56,3.46,5.35,0.0,1.65,3.51,3.06
509,0.025999999,-3.85,1.82,0.7,-0.83,7.31,0.0,1.83,3.97,2.92
510,0.025,-2.72,2.79,-0.94,4.73,1.89,0.0,2.76,3.94,2.86
511,0.025,-3.66,1.84,0.68,-0.77,6.38,0.0,4.49,4.37,2.94
512,0.025999999,-3.14,2.9,-0.65,5.25,4.25,0.0,5.86,5.07,3.21
513,0.025,-3.19,1.42,0.09,-3.02,4.24,0.0,5.27,5.21,3.23
514,0.025999999,-3.51,2.65,-0.37,3.68,6.18,0.0,4.91,5.16,3.08
515,0.025999999,-3.58,2.96,0.97,4.81,5.82,0.0,4.35,4.86,2.95
516,0.024,-2.74,1.94,3.25,-0.19,1.39,0.0,3.29,4.54,3.09
517,0.025999999,-3.44,2.43,0.34,2.3,5.45,0.0,2.75,4.27,3.04
518,0.025,-3.54,2.35,0.15,1.95,6.06,0.0,2.2,4.02,3.02
519,0.025999999,-3.23,2.22,-0.08,1.26,4.51,0.0,1.22,3.78,2.95
520,0.025,-5.73,0.51,-10.12,-23.71,65.13,0.0,-1.95,8.05,2.91
521,0.025999999,-3.52,0.69,0.29,-6.79,5.85,0.0,-2.81,7.93,2.75
522,0.025999999,-3.73,1.04,0.12,-5.04,7.04,0.0,-3.87,7.52,2.55
523,0.025,-3.65,0.77,-0.02,-6.57,6.71,0.0,-4.95,7.16,2.35
524,0.025999999,-3.5,0.54,0.61,-7.37,5.58,0.0,-6.28,6.56,2.16
525,0.025999999,-3.36,0.16,0.17,-9.61,5.0,0.0,-7.52,6.09,1.96
526,0.025,-3.28,0.03,0.03,-10.44,4.63,0.0,-8.6,5.76,1.76
527,0.025999999,-3.2,-0.04,-0.12,-10.96,4.31,0.0,-9.67,5.54,1.54
528,0.025999999,-3.24,-0.24,-0.12,-12.01,4.5,0.0,-10.89,5.24,1.2
529,0.027,-3.19,-0.56,0.13,-13.37,4.09,0.0,-12.04,5.02,0.82
530,0.025999999,-3.25,-0.59,-0.07,-13.74,4.48,0.0,-13.19,4.66,0.5
531,0.027,-3.04,-0.88,-0.58,-16.0,3.49,0.0,-14.38,4.33,0.16
532,0.027,-2.87,-1.04,-0.32,-16.42,2.49,0.0,-15.62,4.05,-0.25
533,0.027,-2.96,-1.28,-0.75,-18.38,3.08,0.0,-17.05,3.81,-0.69
534,0.027,-3.0,-1.51,-0.07,-18.41,3.11,0.0,-18.26,3.59,-1.07
535,0.027999999,-2.97,-1.51,0.12,-18.1,2.89,0.0,-19.38,3.3,-1.34
536,0.025999999,-2.72,-2.09,-0.58,-22.19,1.66,0.0,-20.49,3.11,-1.48
537,0.027999999,-2.5,-2.27,-0.67,-23.25,0.53,0.0,-21.87,2.88,-1.75
538,0.027,-2.63,-2.38,-0.51,-23.5,1.21,0.0,-23.29,2.64,-2.05
539,0.027,-2.64,-2.56,-0.58,-24.46,1.24,0.0,-24.79,2.31,-2.33
540,0.027999999,-2.63,-2.77,-0.42,-25.1,1.19,0.0,-26.25,2.09,-2.45
541,0.027999999,-2.47,-3.3,-1.22,-29.49,0.34,0.0,-27.79,1.94,-2.53
542,0.027,-2.45,-3.33,-1.52,-30.43,0.26,0.0,-29.45,1.77,-2.7
543,0.027999999,-2.46,-3.52,-1.01,-29.94,0.31,0.0,-31.11,1.62,-2.85
544,0.027999999,-2.49,-3.57,-1.23,-30.75,0.47,0.0,-32.68,1.41,-2.96
545,0.027,-2.39,-3.79,-1.35,-32.06,-0.09,0.0,-34.14,1.23,-2.96
546,0.027999999,-2.21,-4.16,-1.89,-35.29,-1.06,0.0,-35.6,1.12,-2.97
547,0.027999999,-2.23,-4.42,-1.72,-35.88,-0.93,0.0,-37.02,0.97,-3.03
548,0.027,-2.26,-4.68,-2.03,-37.97,-0.77,0.0,-38.16,0.87,-3.13
549,0.027999999,-2.41,-4.48,-2.31,-38.06,0.03,0.0,-39.35,0.72,-3.3
550,0.027,-2.4,-4.66,-2.68,-40.11,0.0,0.0,-40.53,0.67,-3.4
551,0.027999999,-2.44,-4.91,-2.56,-40.72,0.18,0.0,-41.54,0.82,-3.42
552,0.027999999,-2.32,-5.0,-2.58,-41.19,-0.44,0.0,-42.54,0.79,-3.52
553,0.027,-2.38,-5.05,-2.65,-41.66,-0.12,0.0,-43.4,0.78,-3.62
554,0.028999997,-2.41,-5.2,-3.01,-43.59,0.04,0.0,-44.45,0.72,-3.69
555,0.027,-2.3,-5.47,-2.83,-43.96,-0.56,0.0,-45.4,0.73,-3.74
556,0.027999999,-2.36,-5.47,-3.12,-45.04,-0.25,0.0,-46.47,0.6,-3.87
557,0.027999999,-2.32,-5.6,-3.22,-45.92,-0.47,0.0,-47.39,0.58,-3.94
558,0.027999999,-2.4,-5.71,-3.6,-47.83,0.0,0.0,-48.5,0.53,-4.02
559,0.027,-2.26,-6.04,-3.66,-49.26,-0.79,0.0,-49.56,0.42,-4.12
560,0.027999999,-2.2,-5.98,-3.55,-48.61,-1.07,0.0,-50.48,0.21,-4.2
561,0.027999999,-2.21,-6.0,-3.78,-49.63,-1.06,0.0,-51.31,-0.03,-4.19
562,0.027999999,-2.05,-6.32,-4.27,-52.78,-1.93,0.0,-52.17,-0.21,-4.19
563,0.027999999,-2.17,-6.2,-4.19,-52.07,-1.29,0.0,-53.14,-0.4,-4.29
564,0.027999999,-2.1,-6.29,-4.24,-52.58,-1.64,0.0,-54.05,-0.55,-4.37
565,0.027999999,-2.25,-6.29,-4.36,-53.11,-0.82,0.0,-54.93,-0.71,-4.42
566,0.027999999,-2.18,-6.54,-4.76,-55.74,-1.26,0.0,-55.88,-0.86,-4.46
567,0.028999997,-2.21,-6.55,-4.78,-55.86,-1.05,0.0,-56.8,-0.99,-4.46
568,0.027,-2.27,-6.61,-5.21,-58.05,-0.73,0.0,-57.65,-1.1,-4.5
569,0.028999997,-2.23,-6.69,-4.29,-54.12,-0.93,0.0,-58.3,-1.59,-4.39
570,0.027999999,-1.93,-6.76,-5.65,-60.54,-2.68,0.0,-59.18,-1.79,-4.4
571,0.027,-2.02,-6.87,-5.51,-60.22,-2.14,0.0,-60.07,-1.83,-4.46
572,0.028999997,-2.14,-6.92,-5.17,-58.73,-1.46,0.0,-60.85,-1.85,-4.52
573,0.027999999,-2.2,-6.77,-5.18,-58.38,-1.13,0.0,-61.38,-1.91,-4.48
574,0.027999999,-2.05,-6.93,-5.62,-60.88,-1.99,0.0,-61.73,-2.07,-4.3
575,0.027999999,-1.85,-7.13,-5.89,-62.69,-3.09,0.0,-62.31,-2.16,-4.2
576,0.028999997,-1.97,-7.05,-5.81,-62.15,-2.41,0.0,-63.04,-2.26,-4.21
577,0.027,-2.19,-6.94,-5.9,-62.34,-1.24,0.0,-63.59,-2.27,-4.19
578,0.027999999,-2.07,-7.01,-5.55,-60.8,-1.88,0.0,-63.91,-2.34,-4.08
579,0.027999999,-1.85,-7.23,-6.27,-64.85,-3.1,0.0,-64.38,-2.43,-4.02
580,0.027999999,-1.96,-7.21,-6.19,-64.42,-2.49,0.0,-64.99,-2.4,-4.06
581,0.028999997,-1.97,-7.22,-5.93,-63.14,-2.43,0.0,-65.5,-2.44,-4.09
582,0.027,-2.04,-7.25,-5.92,-63.22,-1.99,0.0,-65.76,-2.56,-4.06
583,0.027999999,-2.03,-7.3,-6.43,-65.89,-2.12,0.0,-65.87,-2.67,-3.99
584,0.028999997,-2.06,-7.3,-6.34,-65.45,-1.93,0.0,-65.94,-2.78,-3.94
585,0.027,-1.91,-7.47,-6.08,-64.49,-2.68,0.0,-65.75,-2.86,-3.92
586,0.028999997,-2.07,-7.26,-6.33,-65.31,-1.9,0.0,-65.27,-2.93,-3.87
587,0.027999999,-1.91,-7.25,-6.1,-64.06,-2.74,0.0,-64.41,-2.93,-3.78
588,0.027999999,-1.93,-7.15,-6.25,-64.57,-2.68,0.0,-63.5,-3.0,-3.73
589,0.027999999,-1.97,-7.02,-6.02,-63.11,-2.44,0.0,-62.63,-2.99,-3.72
590,0.027999999,-2.13,-6.95,-5.04,-58.26,-1.5,0.0,-61.14,-3.01,-3.67
591,0.027999999,-2.3,-6.68,-5.57,-60.0,-0.59,0.0,-59.04,-3.1,-3.51
592,0.027999999,-1.82,-6.91,-5.58,-60.54,-3.26,0.0,-56.75,-3.13,-3.33
593,0.028999997,-1.88,-7.96,-4.95,-60.45,-2.61,0.0,-54.87,-3.03,-3.59
594,0.027,-1.95,-6.8,-4.89,-57.05,-2.49,0.0,-53.24,-3.02,-4.14
595,0.028999997,-2.58,-5.56,-3.77,-47.96,0.99,0.0,-51.07,-2.89,-4.59
596,0.027999999,-2.31,-5.59,-3.48,-46.88,-0.53,0.0,-48.75,-2.91,-4.65
597,0.027,-1.99,-5.78,-3.89,-49.26,-2.33,0.0,-46.59,-2.96,-4.52
598,0.028999997,-1.61,-5.96,-3.24,-47.19,-4.21,0.0,-44.39,-3.13,-4.51
599,0.027999999,-1.92,-5.14,-3.04,-43.37,-2.67,0.0,-42.24,-3.22,-4.54
600,0.027,-1.44,-5.25,-2.1,-40.34,-4.94,0.0,-40.07,-4.04,-4.53
601,0.028999997,-1.69,-5.07,-2.13,-39.79,-3.71,0.0,-37.5,-4.46,-4.59
602,0.027999999,-1.76,-4.35,-2.31,-37.43,-3.55,0.0,-35.05,-4.37,-4.64
603,0.027999999,-1.74,-3.73,-2.14,-34.05,-3.75,0.0,-32.85,-4.48,-4.72
604,0.027999999,-1.81,-5.22,-0.26,-34.91,-2.71,0.0,-30.82,-4.6,-5.15
605,0.027999999,-1.83,-3.33,-1.77,-31.09,-3.2,0.0,-29.11,-4.46,-5.36
606,0.027999999,-1.35,-2.85,-1.23,-27.27,-5.69,0.0,-27.42,-5.06,-5.63
607,0.027999999,-1.45,-3.14,0.03,-25.74,-4.65,0.0,-25.76,-5.12,-5.93
608,0.027999999,-1.52,-2.62,-0.95,-25.53,-4.76,0.0,-24.24,-4.92,-6.08
609,0.027999999,-1.57,-2.45,-1.22,-25.3,-4.59,0.0,-22.94,-4.74,-6.34
610,0.027999999,-1.45,-2.33,-0.62,-23.38,-5.04,0.0,-21.72,-4.53,-6.62
611,0.028999997,-1.71,-1.85,-0.58,-20.97,-3.71,0.0,-20.46,-4.23,-6.95
612,0.027,-1.77,-1.56,-0.47,-19.31,-3.39,0.0,-19.22,-3.82,-7.16
613,0.027999999,-1.5,-1.77,-0.12,-19.74,-4.65,0.0,-17.88,-3.45,-7.32
614,0.027,-1.74,-1.38,-0.32,-18.14,-3.49,0.0,-16.56,-3.13,-7.49
615,0.027999999,-1.76,-1.2,-0.13,-16.93,-3.39,0.0,-15.19,-2.86,-7.65
616,0.027999999,-1.8,-0.95,-0.07,-15.6,-3.15,0.0,-13.76,-2.66,-7.89
617,0.027999999,-1.74,-0.61,0.39,-13.32,-3.37,0.0,-12.31,-2.55,-8.13
618,0.027,-2.07,-0.15,-0.05,-11.46,-1.8,0.0,-10.89,-2.4,-8.33
619,0.027999999,-1.76,-0.17,0.17,-11.36,-3.34,0.0,-9.45,-2.32,-8.47
620,0.025999999,-1.88,0.27,0.33,-8.96,-2.69,0.0,-8.05,-2.25,-8.55
621,0.027,-1.98,0.48,0.36,-7.86,-2.21,0.0,-6.64,-2.14,-8.52
622,0.027,-1.7,0.65,0.41,-6.93,-3.65,0.0,-5.11,-2.11,-8.41
623,0.025999999,-1.89,0.7,0.38,-6.7,-2.67,0.0,-3.65,-2.18,-8.29
624,0.027,-1.94,1.13,0.34,-4.48,-2.4,0.0,-1.99,-2.21,-8.14
625,0.025999999,-1.97,1.45,0.35,-2.85,-2.24,0.0,-0.33,-2.21,-7.96
626,0.027,-1.88,1.63,0.56,-1.82,-2.68,0.0,1.24,-2.28,-7.84
627,0.027,-1.97,2.18,0.31,1.01,-2.3,0.0,2.99,-2.28,-7.78
628,0.025999999,-2.03,2.09,0.64,0.5,-1.9,0.0,4.49,-2.12,-7.73
629,0.027,-1.82,2.72,0.2,3.87,-3.07,0.0,6.17,-1.93,-7.67
630,0.025999999,-2.01,3.08,0.56,5.59,-2.02,0.0,8.04,-1.7,-7.65
631,0.025999999,-2.12,3.49,0.37,7.82,-1.48,0.0,10.17,-1.44,-7.66
632,0.027,-1.92,3.89,0.14,10.04,-2.55,0.0,12.55,-1.25,-7.53
633,0.025999999,-2.07,4.03,0.6,10.36,-1.69,0.0,14.69,-1.04,-7.53
634,0.027,-2.09,4.46,0.56,12.5,-1.59,0.0,16.6,-0.98,-7.58
635,0.027,-2.21,5.02,-0.12,16.19,-1.02,0.0,18.83,-1.02,-7.65
636,0.027,-2.14,5.21,-0.65,17.98,-1.46,0.0,21.28,-0.93,-7.63
637,0.027,-2.01,5.54,-0.43,19.28,-2.12,0.0,23.56,-1.08,-7.69
638,0.027,-2.34,6.04,-1.12,23.19,-0.37,0.0,25.97,-1.1,-7.74
639,0.027,-2.17,6.49,-1.19,25.63,-1.31,0.0,28.48,-1.36,-7.76
640,0.027,-2.11,6.88,-0.74,26.45,-1.51,0.0,30.82,-1.4,-7.66
641,0.027999999,-2.08,7.31,-1.12,29.38,-1.73,0.0,33.07,-1.53,-7.61
642,0.025999999,-2.25,7.92,-1.25,32.46,-0.78,0.0,35.09,-1.49,-7.64
643,0.027,-2.09,8.2,-1.57,34.62,-1.63,0.0,37.29,-1.5,-7.62
644,0.027,-2.02,8.37,-1.63,35.5,-2.0,0.0,39.19,-1.48,-7.63
645,0.027,-2.08,8.52,-2.45,38.79,-1.8,0.0,41.08,-1.38,-7.64
646,0.027999999,-2.24,8.97,-2.26,40.02,-0.87,0.0,42.97,-1.42,-7.57
647,0.025999999,-2.05,9.31,-1.96,40.37,-1.79,0.0,44.75,-1.52,-7.47
648,0.027999999,-2.08,9.32,-3.39,45.56,-1.8,0.0,46.92,-1.42,-7.37
649,0.027,-2.02,9.58,-3.07,45.32,-2.04,0.0,48.84,-1.33,-7.25
650,0.025999999,-2.02,9.87,-3.13,46.59,-2.0,0.0,50.8,-1.17,-7.21
651,0.027999999,-1.99,9.5,-4.01,48.84,-2.36,0.0,52.93,-0.98,-7.18
652,0.025999999,-2.1,10.04,-4.5,52.93,-1.73,0.0,54.74,-0.82,-7.13
653,0.027999999,-2.21,10.35,-4.44,53.72,-1.08,0.0,56.36,-0.58,-7.11
654,0.027,-2.31,10.33,-5.0,56.25,-0.55,0.0,58.06,-0.29,-7.11
655,0.027,-2.27,10.76,-4.88,57.03,-0.72,0.0,59.65,-0.1,-7.13
656,0.027999999,-1.85,10.11,-4.65,53.78,-3.16,0.0,60.45,-0.21,-7.12
657,0.027,-2.08,10.83,-4.41,55.07,-1.72,0.0,61.29,-0.5,-7.13
658,0.027,-2.25,10.48,-5.71,60.24,-0.87,0.0,62.37,-0.66,-7.12
659,0.027999999,-2.21,10.91,-5.66,61.14,-1.1,0.0,63.07,-0.97,-7.21
660,0.027,-2.16,11.23,-5.86,62.97,-1.32,0.0,63.81,-1.23,-7.19
661,0.027,-2.23,11.03,-6.35,64.97,-0.99,0.0,64.69,-1.42,-7.18
662,0.027999999,-2.13,11.3,-6.02,63.91,-1.48,0.0,65.32,-1.67,-7.14
663,0.025999999,-2.05,11.21,-6.28,64.96,-1.99,0.0,66.06,-1.87,-7.06
664,0.027999999,-2.07,11.13,-6.51,65.99,-1.9,0.0,66.69,-2.0,-6.97
665,0.027999999,-2.01,11.26,-6.61,66.79,-2.24,0.0,67.08,-2.09,-6.94
666,0.025999999,-2.02,11.51,-6.35,65.99,-2.11,0.0,67.43,-2.13,-6.85
667,0.027999999,-1.89,11.17,-6.39,65.36,-2.92,0.0,67.69,-2.24,-6.75
668,0.027999999,-2.05,11.4,-6.57,66.92,-1.98,0.0,67.96,-2.35,-6.73
669,0.025999999,-2.07,11.27,-6.79,67.76,-1.9,0.0,68.21,-2.36,-6.71
670,0.027999999,-2.06,11.5,-6.66,67.58,-1.89,0.0,68.29,-2.36,-6.69
671,0.027999999,-1.98,11.39,-6.64,67.23,-2.35,0.0,68.42,-2.37,-6.68
672,0.025999999,-1.95,11.18,-6.63,66.66,-2.62,0.0,68.54,-2.39,-6.72
673,0.027999999,-2.02,11.55,-6.63,67.5,-2.09,0.0,68.64,-2.43,-6.72
674,0.027999999,-2.05,11.39,-6.85,68.33,-2.01,0.0,68.81,-2.41,-6.68
675,0.025999999,-1.97,11.47,-6.61,67.22,-2.41,0.0,68.96,-2.44,-6.67
676,0.027999999,-1.97,11.31,-6.99,68.86,-2.47,0.0,69.23,-2.39,-6.66
677,0.027,-1.97,11.42,-6.86,68.39,-2.47,0.0,69.37,-2.45,-6.64
678,0.027,-2.01,11.49,-7.15,70.09,-2.23,0.0,69.71,-2.47,-6.63
679,0.027999999,-1.97,11.38,-6.9,68.54,-2.46,0.0,69.91,-2.52,-6.59
680,0.027,-1.94,11.56,-6.85,68.62,-2.56,0.0,70.1,-2.57,-6.56
681,0.027,-1.9,11.52,-6.83,68.41,-2.8,0.0,70.39,-2.63,-6.49
682,0.027999999,-1.93,11.24,-7.06,69.04,-2.75,0.0,70.6,-2.68,-6.41
683,0.027,-1.98,11.61,-7.08,69.94,-2.37,0.0,70.67,-2.73,-6.38
684,0.027,-1.88,11.39,-7.03,69.19,-2.97,0.0,70.69,-2.76,-6.39
685,0.027999999,-2.04,11.38,-7.26,70.47,-2.09,0.0,70.63,-2.75,-6.38
686,0.027,-1.94,11.59,-7.06,69.75,-2.59,0.0,70.56,-2.75,-6.39
687,0.027,-2.0,11.44,-7.3,70.79,-2.3,0.0,70.48,-2.73,-6.38
688,0.027999999,-1.9,11.56,-7.47,71.85,-2.87,0.0,70.2,-2.7,-6.37
689,0.027,-1.92,11.41,-7.3,70.64,-2.79,0.0,69.44,-2.6,-6.35
690,0.027,-1.91,11.6,-6.79,68.37,-2.76,0.0,68.24,-2.46,-6.36
691,0.027,-1.91,10.24,-7.15,67.29,-3.13,0.0,67.29,-2.36,-6.48
692,0.027999999,-1.96,10.97,-6.86,67.44,-2.61,0.0,65.89,-2.24,-6.66
693,0.027,-2.08,12.07,-6.06,65.83,-1.67,0.0,63.46,-1.86,-6.84
694,0.027,-1.89,10.2,-5.42,57.8,-3.02,0.0,60.99,-1.26,-7.2
695,0.027999999,-2.0,9.59,-5.74,57.48,-2.58,0.0,59.02,-0.91,-7.51
696,0.027,-2.11,10.08,-4.69,54.0,-1.69,0.0,56.84,-1.0,-7.78
697,0.027,-2.6,11.37,-4.13,55.51,0.99,0.0,55.24,-0.99,-8.07
698,0.027,-2.52,10.84,-4.48,55.49,0.65,0.0,54.49,-0.89,-8.22
699,0.027,-2.38,10.27,-4.9,55.6,-0.15,0.0,53.6,-0.84,-8.32
700,0.027,-2.23,10.2,-4.09,51.71,-0.97,0.0,52.03,-1.02,-8.35
701,0.027999999,-2.5,10.54,-3.52,50.49,0.48,0.0,50.65,-1.22,-8.38
702,0.025999999,-2.41,10.44,-3.71,50.93,0.03,0.0,49.77,-1.31,-8.34
703,0.027999999,-2.2,9.55,-3.8,48.18,-1.15,0.0,48.47,-1.5,-8.27
704,0.027,-2.32,9.58,-3.49,46.99,-0.44,0.0,46.7,-1.82,-8.22
705,0.025999999,-2.32,9.8,-2.92,45.59,-0.45,0.0,45.14,-2.18,-8.18
706,0.027999999,-2.45,9.05,-3.51,45.02,0.27,0.0,43.44,-2.34,-8.34
707,0.027,-2.07,9.22,-2.7,42.58,-1.78,0.0,41.47,-2.73,-8.41
708,0.025999999,-2.24,9.45,-2.52,42.81,-0.82,0.0,39.81,-2.98,-8.42
709,0.027999999,-2.08,9.02,-2.3,40.35,-1.68,0.0,38.23,-3.08,-8.39
710,0.025999999,-2.08,8.4,-2.81,39.52,-1.85,0.0,36.81,-3.19,-8.39
711,0.027999999,-2.01,8.3,-1.77,35.61,-2.1,0.0,34.78,-3.43,-8.4
712,0.027,-1.88,8.25,-1.58,34.8,-2.73,0.0,33.01,-3.63,-8.42
713,0.025999999,-1.81,7.91,-1.52,33.15,-3.12,0.0,31.43,-3.76,-8.44
714,0.027999999,-1.88,7.14,-1.5,29.57,-2.88,0.0,29.42,-4.0,-8.46
715,0.027,-1.63,7.24,-1.29,29.44,-4.15,0.0,27.36,-4.28,-8.57
716,0.027,-1.94,7.24,-0.61,27.78,-2.35,0.0,25.58,-4.45,-8.61
717,0.027,-1.82,7.02,-0.82,27.25,-3.02,0.0,23.8,-4.56,-8.61
718,0.027,-2.16,6.34,-0.85,24.13,-1.33,0.0,21.7,-4.56,-8.67
719,0.027,-2.01,6.13,-0.55,22.43,-2.06,0.0,19.7,-4.63,-8.71
720,0.027,-1.77,5.87,-0.38,20.8,-3.33,0.0,17.86,-4.7,-8.63
721,0.027,-1.49,5.13,-0.14,16.69,-4.79,0.0,15.91,-4.86,-8.61
722,0.027,-1.89,5.11,-0.18,16.7,-2.69,0.0,14.01,-4.88,-8.63
723,0.027,-1.61,4.69,-0.01,14.31,-4.15,0.0,12.36,-4.93,-8.59
724,0.027,-1.49,4.34,0.09,12.37,-4.77,0.0,10.59,-5.04,-8.57
725,0.027,-1.52,4.42,0.57,12.27,-4.44,0.0,9.06,-5.2,-8.6
726,0.027,-1.6,4.08,0.16,11.0,-4.18,0.0,7.58,-5.25,-8.59
727,0.025999999,-1.62,3.69,0.11,9.03,-4.13,0.0,6.15,-5.36,-8.55
728,0.025999999,-1.48,3.29,-0.34,7.24,-5.11,0.0,4.61,-5.55,-8.48
729,0.025999999,-1.41,3.07,0.63,5.47,-5.04,0.0,3.12,-5.81,-8.48
730,0.025999999,-1.58,3.47,-0.46,8.3,-4.63,0.0,1.92,-5.93,-8.37
731,0.027,-1.3,2.62,0.55,3.22,-5.65,0.0,0.55,-6.16,-8.2
732,0.025,-1.35,2.36,-0.16,2.04,-5.74,0.0,-0.84,-6.29,-8.1
733,0.027,-1.33,2.19,0.4,1.06,-5.57,0.0,-2.33,-6.6,-8.0
734,0.027,-1.3,1.87,0.42,-0.6,-5.73,0.0,-3.66,-6.81,-7.85
735,0.025999999,-1.28,1.42,-0.07,-3.06,-6.08,0.0,-5.01,-6.86,-7.74
736,0.027,-1.29,1.42,0.13,-3.03,-5.94,0.0,-6.5,-7.14,-7.7
737,0.025,-1.24,0.95,0.64,-5.29,-5.92,0.0,-7.84,-7.3,-7.66
738,0.027,-1.1,0.78,0.7,-6.07,-6.54,0.0,-9.07,-7.48,-7.61
739,0.027,-1.12,0.54,0.09,-7.69,-6.8,0.0,-10.39,-7.65,-7.55
740,0.025999999,-0.97,0.3,0.52,-8.57,-7.26,0.0,-11.86,-7.92,-7.46
741,0.027,-1.09,0.24,-0.27,-9.57,-7.18,0.0,-13.19,-8.11,-7.35
742,0.027,-0.84,-0.35,0.13,-12.18,-8.11,0.0,-14.6,-8.34,-7.22
743,0.025999999,-1.07,-0.32,-0.52,-12.83,-7.36,0.0,-15.92,-8.44,-7.12
744,0.027999999,-0.93,-0.71,0.07,-14.11,-7.65,0.0,-17.63,-8.62,-6.89
745,0.027,-0.87,-1.02,0.06,-15.66,-7.91,0.0,-19.15,-8.79,-6.68
746,0.027999999,-0.84,-1.44,-0.21,-18.12,-8.14,0.0,-20.95,-9.0,-6.47
747,0.027999999,-0.95,-1.72,-0.28,-19.66,-7.59,0.0,-22.81,-9.12,-6.28
748,0.025999999,-0.71,-2.12,-0.42,-21.75,-8.81,0.0,-24.44,-9.31,-6.12
749,0.028999997,-0.87,-2.14,-0.65,-22.37,-8.11,0.0,-26.04,-9.47,-5.87
750,0.027999999,-0.5,-2.8,-1.05,-26.26,-10.12,0.0,-27.8,-9.68,-5.73
751,0.027,-0.9,-2.45,-0.83,-24.23,-7.98,0.0,-29.6,-9.85,-5.66
752,0.027999999,-0.89,-2.87,-0.46,-25.41,-7.67,0.0,-31.2,-10.05,-5.46
753,0.028999997,-0.83,-2.98,-1.28,-27.78,-8.5,0.0,-32.57,-10.23,-5.15
754,0.027,-0.48,-4.02,-1.58,-33.18,-10.06,0.0,-34.34,-10.41,-4.91
755,0.028999997,-1.18,-3.55,-2.07,-32.81,-6.88,0.0,-36.31,-10.46,-4.74
756,0.027999999,-0.74,-3.79,-1.65,-32.48,-8.91,0.0,-37.8,-10.57,-4.41
757,0.027999999,-0.86,-4.41,-2.96,-39.52,-8.79,0.0,-39.52,-10.53,-4.11
758,0.027999999,-0.75,-4.26,-2.29,-36.54,-9.05,0.0,-40.97,-10.62,-3.87
759,0.028999997,-0.84,-4.66,-2.57,-39.2,-8.54,0.0,-42.46,-10.72,-3.49
760,0.027,-0.86,-5.1,-2.76,-41.71,-8.31,0.0,-43.73,-10.66,-3.22
761,0.027999999,-0.73,-5.05,-3.01,-42.27,-9.18,0.0,-45.17,-10.65,-3.08
762,0.028999997,-0.79,-5.17,-2.43,-40.8,-8.46,0.0,-46.47,-10.64,-2.76
763,0.027,-0.56,-5.8,-3.08,-45.28,-9.7,0.0,-47.72,-10.57,-2.49
764,0.028999997,-1.05,-5.37,-2.97,-43.63,-7.3,0.0,-48.91,-10.54,-2.15
765,0.027999999,-1.02,-5.57,-3.9,-47.97,-7.84,0.0,-49.99,-10.44,-1.72
766,0.027999999,-0.33,-6.07,-3.42,-47.29,-10.9,0.0,-51.05,-10.68,-1.49
767,0.027999999,-1.77,-6.26,-4.46,-53.32,-3.55,0.0,-52.35,-10.26,-1.27
768,0.028999997,-0.65,-6.24,-4.27,-51.53,-9.6,0.0,-53.6,-10.17,-1.26
769,0.027,-1.53,-6.25,-4.24,-52.23,-4.79,0.0,-54.74,-9.86,-1.17
770,0.027999999,-0.88,-6.57,-3.85,-51.16,-7.96,0.0,-55.45,-9.9,-1.12
771,0.027,-0.92,-7.02,-5.45,-59.38,-8.13,0.0,-56.71,-9.99,-1.29
772,0.028999997,-0.94,-6.77,-4.63,-55.09,-7.88,0.0,-57.93,-9.93,-1.55
773,0.027999999,-1.07,-6.35,-5.51,-57.89,-7.75,0.0,-58.96,-9.99,-1.78
774,0.027,-0.59,-6.93,-4.41,-54.26,-9.49,0.0,-59.56,-10.12,-1.76
775,0.027999999,-0.84,-7.0,-5.87,-61.16,-8.75,0.0,-60.63,-10.19,-1.8
776,0.028999997,-0.87,-5.69,-5.7,-56.41,-9.57,0.0,-61.69,-10.37,-1.89
777,0.027,-0.87,-6.9,-5.69,-60.09,-8.6,0.0,-62.39,-10.35,-1.89
778,0.028999997,-0.92,-7.93,-7.24,-69.82,-8.04,0.0,-63.75,-10.15,-1.96
779,0.027999999,-0.85,-6.81,-5.63,-59.53,-8.75,0.0,-64.57,-10.17,-2.16
780,0.027,-0.72,-7.14,-4.75,-56.46,-8.82,0.0,-65.06,-10.43,-2.28
781,0.028999997,-0.78,-6.79,-6.76,-64.77,-9.62,0.0,-65.46,-10.55,-2.17
782,0.027999999,-0.53,-7.32,-6.79,-65.63,-10.57,0.0,-66.44,-10.55,-2.15
783,0.027999999,-1.41,-7.43,-5.22,-59.97,-5.26,0.0,-66.99,-10.74,-2.29
784,0.027999999,-1.24,-7.47,-6.11,-64.02,-6.36,0.0,-67.48,-10.51,-2.37
785,0.028999997,-0.61,-7.21,-7.32,-68.03,-10.4,0.0,-68.03,-10.43,-2.35
786,0.027,-0.5,-7.46,-7.37,-68.5,-10.78,0.0,-68.81,-10.26,-2.36
787,0.028999997,-0.58,-7.36,-6.72,-65.49,-10.24,0.0,-69.35,-10.18,-2.46
788,0.028999997,-0.86,-7.34,-8.25,-73.37,-9.14,0.0,-70.2,-9.83,-2.55
789,0.027,-0.9,-7.61,-8.58,-75.4,-8.74,0.0,-70.73,-9.58,-2.61
790,0.027999999,-0.5,-7.71,-7.32,-68.78,-10.53,0.0,-71.46,-9.36,-2.72
791,0.028999997,-1.02,-7.23,-7.97,-72.27,-8.19,0.0,-71.99,-8.98,-2.77
792,0.027,-0.67,-7.35,-7.27,-68.26,-9.95,0.0,-71.88,-8.93,-2.77
793,0.027999999,-0.64,-7.49,-7.84,-71.12,-10.11,0.0,-72.2,-8.84,-2.71
794,0.027999999,-0.18,-8.34,-6.75,-66.84,-11.41,0.0,-72.29,-8.86,-2.86
795,0.027999999,-1.11,-7.04,-7.99,-72.28,-7.82,0.0,-72.48,-8.63,-2.86
796,0.027999999,-0.65,-7.57,-7.41,-69.3,-9.87,0.0,-72.65,-8.52,-2.88
797,0.027999999,-0.64,-7.61,-7.64,-70.4,-9.94,0.0,-72.57,-8.46,-2.98
798,0.027,-0.93,-7.58,-8.41,-74.73,-8.53,0.0,-72.92,-8.23,-3.13
799,0.027999999,-0.69,-7.66,-7.06,-67.96,-9.47,0.0,-73.01,-8.02,-3.4
800,0.028999997,-0.65,-7.91,-7.63,-70.92,-9.63,0.0,-72.99,-8.0,-3.56
801,0.027,-0.42,-7.67,-7.86,-70.82,-11.18,0.0,-72.84,-8.07,-3.64
802,0.027999999,-0.76,-7.39,-8.03,-72.12,-9.59,0.0,-72.9,-8.04,-3.78
803,0.027,-0.58,-7.64,-7.43,-69.35,-10.19,0.0,-72.62,-8.04,-3.88
804,0.028999997,-0.82,-7.3,-7.31,-68.72,-9.12,0.0,-72.03,-7.98,-3.94
805,0.027999999,-0.5,-7.63,-8.38,-73.23,-10.9,0.0,-71.44,-7.94,-4.01
806,0.027,-1.03,-5.33,-8.53,-71.46,-10.24,0.0,-70.89,-7.66,-4.0
807,0.028999997,-0.55,-6.99,-7.42,-67.84,-11.02,0.0,-70.16,-7.6,-4.15
808,0.027999999,-0.83,-7.14,-7.32,-68.41,-9.23,0.0,-69.58,-7.46,-4.32
809,0.027,-0.48,-7.33,-7.07,-66.82,-10.95,0.0,-69.12,-7.44,-4.4
810,0.028999997,-0.56,-7.09,-6.85,-65.41,-10.66,0.0,-68.64,-7.42,-4.46
811,0.027999999,-0.71,-7.19,-6.21,-63.02,-9.46,0.0,-67.73,-7.43,-4.29
812,0.027,-0.25,-7.45,-7.88,-69.94,-12.39,0.0,-67.4,-7.46,-4.15
813,0.028999997,-0.48,-7.38,-6.27,-63.31,-10.55,0.0,-66.95,-7.34,-4.21
814,0.027999999,-0.85,-6.76,-5.94,-60.85,-8.89,0.0,-65.82,-7.23,-4.09
815,0.027,-0.07,-7.53,-7.72,-68.88,-13.2,0.0,-65.19,-7.26,-3.98
816,0.028999997,-0.4,-7.59,-5.56,-60.6,-10.52,0.0,-64.57,-7.21,-4.25
817,0.027999999,-1.39,-7.03,-5.59,-60.6,-5.61,0.0,-63.31,-7.03,-4.14
818,0.027,-0.76,-6.76,-6.31,-62.43,-9.57,0.0,-61.79,-6.92,-3.82
819,0.028999997,-0.18,-7.51,-6.82,-65.38,-12.26,0.0,-61.17,-6.8,-3.83
820,0.027999999,-0.7,-7.06,-4.91,-56.84,-9.04,0.0,-60.3,-6.5,-4.1
821,0.027,-1.29,-6.34,-3.79,-50.46,-5.91,0.0,-58.64,-6.3,-4.03
822,0.027999999,-0.43,-7.03,-6.02,-61.17,-11.05,0.0,-57.37,-6.26,-3.79
823,0.028999997,-0.53,-7.2,-5.37,-59.0,-10.07,0.0,-56.44,-6.17,-3.88
824,0.027,-1.12,-6.2,-3.91,-50.39,-6.93,0.0,-55.3,-5.96,-3.97
825,0.027999999,-0.87,-6.16,-4.95,-54.45,-8.78,0.0,-53.49,-5.8,-3.79
826,0.027999999,-0.38,-7.0,-5.78,-59.96,-11.23,0.0,-52.82,-5.67,-3.95
827,0.027999999,-1.1,-5.68,-3.48,-46.79,-7.12,0.0,-51.62,-5.43,-4.19
828,0.027999999,-1.82,-4.75,-2.49,-39.73,-3.19,0.0,-48.84,-5.14,-3.79
829,0.027999999,-0.14,-6.49,-5.99,-58.97,-13.2,0.0,-47.26,-5.18,-3.35
830,0.027999999,-0.55,-6.6,-3.53,-49.72,-9.46,0.0,-46.47,-5.06,-3.62
831,0.027999999,-1.81,-4.46,-1.64,-35.81,-3.1,0.0,-44.24,-4.73,-3.57
832,0.028999997,-1.12,-5.38,-2.2,-41.05,-6.58,0.0,-40.77,-4.6,-2.68
833,0.027,-0.11,-6.62,-5.8,-58.42,-13.11,0.0,-39.79,-4.69,-2.41
834,0.028999997,-1.14,-5.32,-2.82,-42.94,-6.76,0.0,-39.36,-4.48,-3.0
835,0.027,-2.1,-3.57,-1.03,-30.23,-1.58,0.0,-37.76,-4.15,-3.19
836,0.028999997,-1.3,-4.55,-1.46,-35.47,-5.63,0.0,-35.77,-3.96,-2.87
837,0.027999999,-0.81,-5.0,-3.04,-42.24,-8.83,0.0,-34.91,-3.89,-3.0
838,0.027999999,-1.31,-4.29,-1.34,-34.04,-5.61,0.0,-34.07,-3.73,-3.36
839,0.027999999,-1.78,-3.43,-1.48,-30.74,-3.39,0.0,-32.44,-3.54,-3.31
840,0.027999999,-0.97,-4.27,-1.23,-33.51,-7.24,0.0,-31.22,-3.51,-3.29
841,0.027999999,-1.21,-3.89,-1.11,-31.64,-6.12,0.0,-30.24,-3.43,-3.51
842,0.027999999,-1.65,-2.63,-0.54,-24.64,-3.9,0.0,-28.54,-3.35,-3.39
843,0.028999997,-1.63,-2.79,-1.22,-26.99,-4.21,0.0,-25.87,-3.09,-2.89
844,0.027,-1.0,-3.33,-1.68,-30.59,-7.71,0.0,-24.19,-3.05,-2.62
845,0.028999997,-1.49,-2.34,-0.59,-23.36,-4.79,0.0,-22.32,-3.04,-2.47
846,0.027999999,-1.55,-2.03,-0.54,-21.78,-4.5,0.0,-20.46,-3.14,-2.21
847,0.027,-1.64,-1.66,0.12,-18.77,-3.85,0.0,-18.08,-3.23,-1.78
848,0.027999999,-0.96,-2.14,-0.89,-22.87,-7.79,0.0,-15.97,-3.53,-1.41
849,0.027999999,-1.58,-1.36,-0.28,-17.97,-4.37,0.0,-14.54,-3.54,-1.38
850,0.027999999,-1.84,-0.49,0.65,-12.42,-2.81,0.0,-12.79,-3.52,-1.1
851,0.027999999,-1.64,-0.13,0.93,-10.41,-3.72,0.0,-10.11,-3.54,-0.54
852,0.027,-1.53,-0.38,-0.68,-13.43,-4.92,0.0,-7.64,-3.37,0.05
853,0.027,-1.41,-0.1,-0.19,-11.3,-5.33,0.0,-5.98,-3.38,0.42
854,0.027,-1.95,0.56,0.34,-7.48,-2.35,0.0,-4.6,-3.33,0.57
855,0.025,-1.75,0.87,0.67,-5.68,-3.32,0.0,-3.04,-3.35,0.73
856,0.027,-1.55,0.86,0.32,-5.89,-4.44,0.0,-1.28,-3.45,1.01
857,0.025999999,-1.43,1.11,0.45,-4.53,-5.01,0.0,0.2,-3.77,1.23
858,0.025,-1.54,1.56,0.3,-2.24,-4.51,0.0,1.49,-4.17,1.38
859,0.027,-1.69,2.22,-0.11,1.24,-3.91,0.0,2.44,-4.36,1.2
860,0.025999999,-1.27,1.95,0.51,-0.22,-5.83,0.0,4.32,-4.64,1.38
861,0.025,-1.62,2.64,-0.15,3.56,-4.27,0.0,5.96,-4.71,1.47
862,0.027,-1.45,3.03,0.35,5.41,-4.95,0.0,7.75,-4.78,1.62
863,0.025,-1.31,3.1,0.59,5.68,-5.58,0.0,9.61,-4.86,1.83
864,0.025999999,-1.66,3.62,0.02,8.71,-3.97,0.0,11.85,-4.93,2.0
865,0.027,-1.61,4.05,-1.54,12.82,-4.87,0.0,14.21,-4.85,2.08
866,0.025,-1.43,4.13,-0.05,11.46,-5.16,0.0,15.9,-4.96,2.15
867,0.027,-1.31,4.53,-0.09,13.59,-5.77,0.0,17.84,-5.05,2.18
868,0.025999999,-1.43,5.22,-0.05,17.02,-5.03,0.0,19.67,-5.05,2.21
869,0.027,-1.47,5.39,-0.19,18.09,-4.87,0.0,21.42,-4.97,2.27
870,0.027,-1.3,5.57,-0.37,19.25,-5.85,0.0,22.96,-4.91,2.26
871,0.025999999,-1.3,5.77,-0.5,20.48,-5.85,0.0,24.37,-4.8,2.23
872,0.027,-1.38,6.28,-0.16,22.28,-5.2,0.0,25.73,-4.69,2.22
873,0.027,-1.1,6.66,-0.4,24.51,-6.63,0.0,27.09,-4.72,2.3
874,0.025999999,-1.52,6.55,-0.48,24.26,-4.57,0.0,28.45,-4.61,2.31
875,0.027,-1.48,7.23,-1.04,28.68,-4.87,0.0,30.12,-4.49,2.35
876,0.025,-1.58,6.82,-0.03,24.54,-4.04,0.0,31.69,-4.35,2.3
877,0.027,-1.44,7.47,-1.16,30.09,-5.05,0.0,33.77,-4.24,2.32
878,0.027,-1.56,7.73,-1.58,32.44,-4.54,0.0,36.1,-4.12,2.47
879,0.025999999,-1.49,7.54,-2.21,33.44,-5.21,0.0,38.13,-4.0,2.54
880,0.027,-1.42,7.97,-1.68,33.81,-5.24,0.0,39.85,-3.91,2.61
881,0.027,-1.53,8.43,-1.96,36.7,-4.62,0.0,41.64,-3.89,2.6
882,0.025999999,-1.91,8.97,-2.66,41.38,-2.67,0.0,43.62,-3.74,2.65
883,0.027,-1.69,9.26,-2.65,42.45,-3.82,0.0,45.74,-3.64,2.75
884,0.025999999,-1.67,8.96,-3.0,42.51,-4.06,0.0,47.54,-3.45,2.84
885,0.025999999,-1.74,9.57,-3.33,46.18,-3.62,0.0,49.6,-3.23,2.86
886,0.027,-1.85,9.64,-4.12,49.74,-3.15,0.0,51.48,-2.88,2.86
887,0.025999999,-1.52,9.85,-3.76,48.88,-4.85,0.0,52.92,-2.74,2.9
888,0.027,-1.5,10.26,-3.46,49.09,-4.71,0.0,54.41,-2.7,2.89
889,0.025999999,-1.64,10.43,-3.91,51.57,-4.06,0.0,56.04,-2.63,2.89
890,0.027,-1.54,10.38,-4.29,52.94,-4.72,0.0,57.63,-2.68,2.92
891,0.027999999,-1.62,10.75,-5.07,57.61,-4.31,0.0,59.39,-2.63,2.94
892,0.025999999,-1.72,10.82,-5.13,58.14,-3.79,0.0,60.9,-2.59,3.02
893,0.027,-1.44,11.31,-4.76,57.75,-4.99,0.0,62.49,-2.71,3.19
894,0.027,-1.48,10.34,-6.11,61.42,-5.54,0.0,64.05,-2.67,3.34
895,0.025999999,-1.58,11.2,-5.36,60.23,-4.44,0.0,64.91,-2.8,3.33
896,0.027,-1.97,11.51,-6.71,67.82,-2.44,0.0,66.21,-2.73,3.47
897,0.027999999,-1.59,11.09,-6.02,63.08,-4.54,0.0,67.28,-2.58,3.53
898,0.025999999,-1.52,10.96,-6.22,63.68,-5.07,0.0,68.0,-2.5,3.65
899,0.027,-1.54,11.39,-5.9,63.2,-4.72,0.0,68.59,-2.55,3.67
900,0.025999999,-1.54,11.2,-6.54,65.89,-4.89,0.0,69.45,-2.53,3.69
901,0.027,-1.75,11.15,-7.26,69.81,-3.84,0.0,70.33,-2.47,3.78
902,0.027,-1.7,11.37,-7.14,69.57,-4.0,0.0,71.03,-2.46,3.8
903,0.025999999,-1.89,12.16,-7.35,72.23,-2.75,0.0,71.81,-2.37,3.89
904,0.027999999,-1.76,11.9,-7.27,71.29,-3.51,0.0,72.46,-2.21,4.14
905,0.027,-1.34,11.36,-6.76,67.13,-5.98,0.0,72.92,-2.16,4.39
906,0.025999999,-1.38,11.44,-7.24,69.76,-5.85,0.0,73.52,-2.27,4.52
907,0.027,-1.58,11.58,-7.93,73.92,-4.74,0.0,74.2,-2.3,4.59
908,0.025999999,-1.61,12.04,-8.07,75.4,-4.37,0.0,74.93,-2.22,4.78
909,0.027,-1.52,12.1,-8.02,75.07,-4.81,0.0,75.7,-2.02,5.17
910,0.027999999,-0.8,10.82,-7.31,67.67,-9.66,0.0,76.19,-2.14,5.34
911,0.025999999,-1.43,11.83,-8.5,76.9,-5.54,0.0,77.09,-2.23,5.48
912,0.027,-1.46,11.17,-8.78,77.6,-5.76,0.0,77.73,-2.19,5.58
913,0.027,-1.6,12.23,-8.57,78.12,-4.38,0.0,78.49,-1.97,5.74
914,0.025999999,-1.52,12.37,-8.44,77.49,-4.77,0.0,79.43,-1.73,6.14
915,0.027,-1.4,11.31,-9.17,79.52,-6.1,0.0,80.13,-1.77,6.45
916,0.025999999,-1.34,11.92,-9.33,80.68,-6.06,0.0,80.91,-1.77,6.74
917,0.027999999,-1.17,11.96,-8.87,78.13,-6.95,0.0,81.55,-1.86,7.03
918,0.027,-1.22,11.76,-9.26,79.76,-6.85,0.0,82.14,-1.93,7.38
919,0.025999999,-1.09,11.78,-9.09,78.59,-7.54,0.0,82.77,-2.04,7.72
920,0.027,-0.87,11.61,-9.49,78.98,-9.01,0.0,83.23,-2.33,8.06
921,0.027999999,-1.16,12.04,-10.09,82.44,-7.05,0.0,83.77,-2.52,8.49
922,0.025999999,-0.73,12.14,-9.14,77.78,-9.28,0.0,83.69,-2.81,8.75
923,0.027999999,-0.69,11.73,-9.59,78.53,-9.93,0.0,83.87,-3.05,8.94
924,0.025999999,-0.72,11.46,-9.95,79.28,-10.05,0.0,84.3,-3.23,9.24
925,0.027999999,-0.66,11.65,-9.68,78.56,-10.18,0.0,84.53,-3.51,9.5
926,0.027999999,-0.63,11.61,-9.63,78.22,-10.38,0.0,84.76,-3.76,9.77
927,0.025999999,-0.57,11.42,-9.74,77.94,-10.98,0.0,84.97,-4.08,9.94
928,0.027999999,-0.63,12.01,-10.14,79.69,-10.01,0.0,85.06,-4.43,10.02
929,0.027999999,-0.97,12.06,-10.62,81.88,-8.11,0.0,85.07,-4.59,10.25
930,0.027,-0.78,12.34,-10.36,81.03,-8.89,0.0,85.11,-4.77,10.5
931,0.028999997,-0.51,11.54,-10.12,78.5,-11.18,0.0,85.2,-4.92,10.88
932,0.027999999,-0.52,11.56,-10.4,78.86,-11.1,0.0,85.26,-5.0,11.2
933,0.027,-0.24,11.02,-10.26,76.41,-13.45,0.0,85.25,-5.34,11.31
934,0.028999997,-0.5,11.7,-10.53,78.94,-11.06,0.0,85.07,-5.55,11.44
935,0.027999999,-0.43,11.79,-10.41,78.57,-11.39,0.0,84.66,-5.82,11.4
936,0.027999999,-0.49,11.41,-10.8,78.43,-11.49,0.0,84.71,-5.9,11.39
937,0.027999999,-0.33,11.73,-10.35,77.91,-12.03,0.0,84.85,-5.94,11.5
938,0.028999997,-0.3,10.85,-10.6,76.63,-13.37,0.0,84.96,-6.13,11.56
939,0.027,-0.49,11.85,-10.89,78.88,-10.97,0.0,84.99,-6.32,11.6
940,0.027999999,-0.45,11.52,-10.48,78.39,-11.59,0.0,84.87,-6.46,11.58
941,0.028999997,-0.49,11.31,-10.84,78.27,-11.62,0.0,84.7,-6.79,11.49
942,0.027,-0.63,11.96,-11.02,79.61,-10.06,0.0,84.58,-7.02,11.39
943,0.028999997,-0.37,12.01,-10.8,78.46,-11.47,0.0,84.33,-7.16,11.47
944,0.027999999,-0.27,11.26,-10.51,77.04,-12.96,0.0,83.95,-7.38,11.35
945,0.027,-0.47,11.9,-10.58,78.99,-11.01,0.0,83.49,-7.66,11.09
946,0.028999997,-0.63,12.09,-10.88,79.91,-9.93,0.0,83.07,-7.78,10.95
947,0.027999999,-0.53,11.99,-10.5,79.37,-10.62,0.0,82.85,-7.88,10.94
948,0.027999999,-0.51,10.87,-10.59,77.95,-12.05,0.0,82.48,-8.1,10.79
949,0.027999999,-0.57,11.67,-10.48,79.26,-10.73,0.0,82.18,-8.26,10.67
950,0.027999999,-0.74,11.92,-11.13,80.01,-9.46,0.0,82.04,-8.24,10.54
951,0.027999999,-0.71,11.71,-10.53,80.14,-9.86,0.0,81.96,-8.2,10.41
952,0.027999999,-0.73,11.64,-11.09,79.68,-9.84,0.0,81.91,-8.12,10.36
953,0.027,-0.74,11.51,-10.57,80.1,-9.9,0.0,81.99,-8.02,10.36
954,0.027999999,-0.83,12.09,-10.57,81.17,-8.83,0.0,81.78,-7.85,10.22
955,0.027999999,-0.39,11.23,-9.54,76.28,-12.2,0.0,81.46,-7.99,9.84
956,0.027,-0.82,11.77,-10.89,80.64,-9.18,0.0,81.51,-8.06,9.64
957,0.027999999,-0.77,11.74,-10.44,80.47,-9.5,0.0,81.64,-8.04,9.5
958,0.027,-0.69,11.41,-10.31,79.59,-10.29,0.0,81.79,-8.09,9.26
959,0.027,-0.89,12.03,-10.53,81.43,-8.57,0.0,82.0,-8.06,9.16
960,0.027999999,-0.93,11.89,-10.48,81.52,-8.47,0.0,82.21,-8.03,9.19
961,0.027,-0.79,11.5,-10.4,80.33,-9.61,0.0,82.31,-8.0,9.23
962,0.027,-0.92,11.92,-10.74,81.46,-8.48,0.0,82.37,-8.02,9.24
963,0.027999999,-0.99,11.93,-11.08,81.42,-8.07,0.0,82.56,-7.95,9.38
964,0.027,-0.7,11.46,-10.51,79.78,-10.21,0.0,82.71,-8.02,9.37
965,0.027,-0.84,11.9,-10.87,80.86,-8.98,0.0,82.87,-8.22,9.37
966,0.027999999,-0.81,11.43,-11.09,79.94,-9.55,0.0,83.06,-8.27,9.49
967,0.027,-0.91,11.97,-10.8,81.4,-8.49,0.0,83.28,-8.31,9.62
968,0.027,-0.62,11.85,-10.77,79.7,-10.23,0.0,83.39,-8.51,9.78
969,0.027999999,-0.8,11.14,-11.28,79.12,-9.93,0.0,83.51,-8.54,9.85
970,0.027,-0.66,11.77,-10.94,79.67,-10.09,0.0,83.55,-8.72,9.82
971,0.027999999,-0.54,11.43,-10.76,78.8,-11.14,0.0,83.74,-8.94,9.89
972,0.027999999,-0.78,11.46,-11.69,78.23,-9.67,0.0,83.87,-9.0,9.96
973,0.025999999,-0.75,11.52,-11.23,79.42,-9.82,0.0,83.87,-9.01,10.09
974,0.028999997,-0.65,11.65,-11.24,79.01,-10.26,0.0,84.12,-9.06,10.2
975,0.027999999,-0.65,11.45,-11.34,78.55,-10.47,0.0,84.16,-9.14,10.24
976,0.027,-0.69,11.99,-11.72,78.33,-9.66,0.0,84.2,-9.14,10.41
977,0.028999997,-0.44,11.51,-11.05,78.02,-11.62,0.0,84.2,-9.31,10.54
978,0.027999999,-0.68,11.4,-11.69,77.68,-10.3,0.0,84.19,-9.37,10.46
979,0.027,-0.6,11.68,-11.83,77.18,-10.47,0.0,84.08,-9.47,10.52
980,0.028999997,-0.64,11.29,-11.65,77.45,-10.67,0.0,84.13,-9.48,10.71
981,0.027999999,-0.69,11.3,-11.76,77.36,-10.35,0.0,84.02,-9.6,10.76
982,0.027999999,-0.57,11.27,-11.64,77.09,-11.12,0.0,84.0,-9.66,10.74
983,0.027999999,-0.59,11.53,-11.7,77.37,-10.67,0.0,84.02,-9.77,10.7
984,0.027999999,-0.49,11.59,-11.6,77.23,-11.23,0.0,83.93,-9.68,10.81
985,0.027999999,-0.37,11.56,-11.41,77.06,-11.95,0.0,83.89,-9.65,10.92
986,0.027999999,-0.46,11.57,-12.03,75.77,-11.33,0.0,83.67,-9.74,10.97
987,0.028999997,-0.57,11.59,-11.87,76.81,-10.73,0.0,83.66,-9.78,10.94
988,0.027,-0.36,11.18,-11.7,75.73,-12.46,0.0,83.57,-9.84,10.89
989,0.028999997,-0.46,11.62,-11.97,76.0,-11.32,0.0,83.27,-9.97,10.86
990,0.027,-0.46,11.56,-11.95,76.03,-11.34,0.0,83.15,-9.92,10.83
991,0.027999999,-0.61,11.4,-12.23,75.43,-10.62,0.0,82.91,-9.87,10.79
992,0.028999997,-0.5,11.75,-12.05,76.12,-10.92,0.0,82.52,-9.98,10.66
993,0.027,-0.51,11.48,-11.99,76.0,-11.16,0.0,82.09,-10.05,10.56
994,0.028999997,-0.63,11.83,-12.1,76.61,-10.09,0.0,81.55,-10.1,10.51
995,0.028999997,-0.55,11.33,-11.78,76.64,-11.14,0.0,80.79,-10.2,10.25
996,0.027,-0.61,10.9,-11.86,76.08,-11.24,0.0,79.69,-10.31,9.75
997,0.027999999,-0.73,11.56,-11.81,77.75,-9.81,0.0,78.4,-10.3,9.02
998,0.027999999,-0.85,11.58,-11.5,79.34,-9.13,0.0,77.34,-10.16,8.02
999,0.027,-1.08,11.61,-11.28,81.13,-7.81,0.0,76.45,-10.01,7.19
1000,0.027999999,-1.37,12.42,-11.18,83.43,-5.65,0.0,75.17,-9.84,6.17
1001,0.027999999,-1.6,11.73,-10.92,84.87,-4.7,0.0,74.2,-9.7,5.46
1002,0.027,-1.4,11.39,-11.23,82.7,-6.1,0.0,72.6,-9.61,5.13
1003,0.027,-1.06,11.34,-8.76,76.47,-8.01,0.0,71.2,-9.8,4.95
1004,0.027999999,-1.44,11.4,-10.04,83.35,-5.83,0.0,71.04,-9.68,4.88
1005,0.025999999,-1.26,9.98,-9.74,79.97,-8.1,0.0,69.86,-9.81,4.69
1006,0.027,-1.85,12.55,-8.92,80.63,-2.97,0.0,68.83,-9.99,4.3
1007,0.027999999,-1.79,12.03,-9.74,84.13,-3.47,0.0,68.76,-9.77,4.07
1008,0.025999999,-1.33,10.84,-8.9,77.38,-6.8,0.0,67.69,-9.85,3.78
1009,0.027,-1.82,12.77,-8.48,78.62,-3.03,0.0,66.1,-10.01,3.41
1010,0.025999999,-2.19,13.16,-8.53,79.63,-1.05,0.0,65.41,-9.9,3.08
1011,0.027,-1.7,11.38,-8.44,76.56,-4.18,0.0,64.33,-9.8,2.79
1012,0.027999999,-1.73,11.13,-8.32,75.6,-4.1,0.0,61.57,-9.71,2.38
1013,0.025999999,-2.14,12.07,-6.93,70.12,-1.41,0.0,58.61,-9.48,2.03
1014,0.027,-2.08,11.45,-6.96,69.06,-1.85,0.0,55.96,-9.16,1.84
1015,0.027,-1.75,10.26,-6.06,61.12,-3.94,0.0,53.12,-8.97,1.58
1016,0.025999999,-2.03,11.23,-5.31,60.3,-2.02,0.0,50.36,-8.93,1.29
1017,0.027,-2.43,11.76,-5.08,60.7,0.15,0.0,47.93,-8.78,1.16
1018,0.025999999,-2.14,10.96,-4.74,56.97,-1.4,0.0,46.09,-8.56,1.23
1019,0.027,-1.86,9.95,-4.4,52.13,-3.1,0.0,44.24,-8.39,1.29
1020,0.027,-1.89,9.61,-4.21,50.07,-2.94,0.0,42.2,-8.44,1.22
1021,0.025999999,-1.85,9.39,-3.41,45.9,-3.07,0.0,40.13,-8.45,1.1
1022,0.027,-1.98,9.65,-3.71,48.11,-2.37,0.0,38.42,-8.35,1.0
1023,0.027,-1.89,9.09,-3.23,43.99,-2.88,0.0,36.44,-8.31,0.86
1024,0.025999999,-1.89,9.05,-2.49,41.09,-2.74,0.0,34.45,-8.35,0.66
1025,0.027,-2.06,9.17,-2.47,41.55,-1.84,0.0,32.68,-8.36,0.52
1026,0.025999999,-2.04,9.22,-2.28,41.07,-1.88,0.0,31.21,-8.34,0.44
1027,0.027,-1.9,8.46,-2.17,37.54,-2.7,0.0,29.71,-8.34,0.42
1028,0.025999999,-1.87,8.31,-2.01,36.38,-2.88,0.0,28.36,-8.33,0.39
1029,0.025999999,-1.8,7.92,-2.05,34.8,-3.31,0.0,27.1,-8.27,0.35
1030,0.027,-1.83,7.9,-1.45,32.89,-3.0,0.0,25.72,-8.21,0.31
1031,0.025999999,-1.87,7.92,-1.36,32.75,-2.76,0.0,24.64,-8.14,0.32
1032,0.027,-1.81,7.4,-1.44,30.58,-3.2,0.0,23.37,-7.95,0.39
1033,0.027,-1.56,7.0,-0.83,27.13,-4.42,0.0,21.9,-7.93,0.51
1034,0.025999999,-1.3,6.85,1.07,22.57,-5.0,0.0,20.37,-7.91,0.41
1035,0.027,-1.62,6.41,-0.83,24.38,-4.18,0.0,18.74,-7.77,0.47
1036,0.025999999,-1.63,6.08,-0.57,22.22,-4.07,0.0,17.14,-7.63,0.47
1037,0.025999999,-1.43,5.79,0.08,19.56,-4.91,0.0,15.56,-7.56,0.45
1038,0.027,-1.72,5.54,-0.37,19.18,-3.61,0.0,13.79,-7.53,0.38
1039,0.025999999,-1.78,5.18,-0.22,17.1,-3.31,0.0,12.1,-7.47,0.31
1040,0.027,-1.67,5.15,0.08,16.51,-3.8,0.0,10.65,-7.41,0.26
1041,0.025999999,-1.85,5.06,-0.53,17.0,-3.0,0.0,9.64,-7.24,0.27
1042,0.025999999,-1.78,4.54,-0.27,13.89,-3.34,0.0,8.21,-7.1,0.27
1043,0.027,-1.85,4.65,0.53,13.48,-2.76,0.0,6.72,-7.01,0.22
1044,0.025999999,-1.54,4.2,0.77,11.03,-4.26,0.0,5.13,-7.01,0.06
1045,0.025,-1.77,3.86,0.18,9.84,-3.33,0.0,3.59,-6.91,-0.05
1046,0.027,-1.92,3.65,0.15,8.83,-2.56,0.0,2.04,-6.71,-0.1
1047,0.025999999,-1.0,2.35,-0.24,1.97,-7.74,0.0,0.18,-6.67,-0.2
1048,0.027,-1.57,2.65,0.43,3.41,-4.35,0.0,-1.62,-6.68,-0.31
1049,0.027,-1.51,2.56,0.94,2.85,-4.45,0.0,-3.05,-6.71,-0.52
1050,0.025,-1.59,2.56,0.38,2.98,-4.22,0.0,-4.4,-6.7,-0.61
1051,0.027,-1.64,1.61,0.77,-1.92,-3.85,0.0,-5.83,-6.64,-0.69
1052,0.025999999,-1.9,0.81,0.47,-6.09,-2.59,0.0,-7.52,-6.53,-0.56
1053,0.027,-1.45,2.0,1.0,0.06,-4.69,0.0,-8.69,-6.56,-0.33
1054,0.027,-1.48,0.95,0.5,-5.33,-4.76,0.0,-10.21,-6.52,-0.25
1055,0.025999999,-1.54,0.39,0.54,-8.17,-4.38,0.0,-12.05,-6.34,-0.4
1056,0.027,-1.65,0.72,1.24,-6.11,-3.64,0.0,-13.55,-6.23,-0.48
1057,0.027,-1.75,0.29,-0.01,-9.14,-3.47,0.0,-14.99,-6.09,-0.51
1058,0.027,-1.48,-0.56,0.11,-13.37,-4.8,0.0,-16.78,-6.0,-0.67
1059,0.027999999,-1.38,-0.2,1.24,-10.44,-4.89,0.0,-18.37,-5.98,-0.94
1060,0.027999999,-1.32,-1.11,-0.1,-16.43,-5.64,0.0,-19.69,-5.8,-1.15
1061,0.027,-1.63,-1.15,-0.4,-17.11,-4.17,0.0,-21.14,-5.81,-1.27
1062,0.027999999,-1.71,-1.15,-0.4,-17.13,-3.71,0.0,-22.42,-5.67,-1.44
1063,0.027,-1.23,-2.06,0.1,-20.65,-5.86,0.0,-23.59,-5.64,-1.57
1064,0.027999999,-1.81,-1.52,-0.28,-18.82,-3.12,0.0,-24.79,-5.54,-1.68
1065,0.028999997,-1.74,-1.78,-0.07,-19.74,-3.38,0.0,-25.85,-5.49,-1.67
1066,0.027,-1.8,-2.05,-0.74,-22.3,-3.22,0.0,-26.86,-5.47,-1.62
1067,0.028999997,-1.27,-2.58,0.17,-22.93,-5.55,0.0,-28.07,-5.56,-1.66
1068,0.027999999,-1.52,-2.56,-0.69,-24.64,-4.63,0.0,-29.18,-5.63,-1.64
1069,0.027,-1.53,-2.92,-0.9,-26.81,-4.59,0.0,-30.27,-5.73,-1.68
1070,0.028999997,-1.38,-2.84,-1.07,-26.79,-5.48,0.0,-31.44,-5.81,-1.71
1071,0.027999999,-1.38,-3.36,-1.17,-29.49,-5.41,0.0,-32.67,-5.97,-1.73
1072,0.027999999,-1.65,-3.35,-1.35,-30.01,-4.06,0.0,-34.14,-6.03,-1.84
1073,0.027999999,-1.82,-3.33,-0.6,-28.04,-2.97,0.0,-35.17,-6.05,-1.87
1074,0.027999999,-1.2,-4.15,-2.01,-35.4,-6.53,0.0,-36.54,-6.19,-1.92
1075,0.027999999,-1.4,-4.07,-1.38,-33.23,-5.19,0.0,-38.07,-6.26,-2.1
1076,0.027999999,-1.78,-3.67,-1.55,-32.03,-3.34,0.0,-39.11,-6.31,-2.11
1077,0.028999997,-1.36,-4.47,-2.1,-37.14,-5.61,0.0,-40.39,-6.34,-2.07
1078,0.027,-1.31,-4.74,-2.26,-38.78,-5.81,0.0,-41.79,-6.34,-2.18
1079,0.027999999,-1.62,-4.48,-1.86,-36.5,-4.12,0.0,-42.99,-6.39,-2.26
1080,0.028999997,-1.34,-4.83,-2.54,-40.1,-5.76,0.0,-44.02,-6.43,-2.23
1081,0.027,-1.15,-5.14,-2.95,-42.68,-6.86,0.0,-45.26,-6.46,-2.28
1082,0.028999997,-1.4,-5.06,-2.65,-41.46,-5.39,0.0,-46.34,-6.46,-2.4
1083,0.027999999,-1.59,-4.98,-3.21,-43.29,-4.56,0.0,-47.16,-6.45,-2.38
1084,0.027999999,-1.35,-5.13,-3.31,-44.17,-5.91,0.0,-48.25,-6.45,-2.42
1085,0.027999999,-1.47,-5.3,-2.88,-43.27,-5.02,0.0,-49.3,-6.44,-2.44
1086,0.027999999,-1.4,-5.37,-3.68,-46.6,-5.69,0.0,-50.23,-6.48,-2.38
1087,0.027999999,-1.4,-5.75,-3.42,-46.99,-5.45,0.0,-51.29,-6.52,-2.3
1088,0.027999999,-1.53,-5.9,-4.05,-50.22,-4.85,0.0,-52.44,-6.58,-2.22
1089,0.028999997,-1.4,-6.11,-3.61,-49.01,-5.35,0.0,-53.51,-6.58,-2.12
1090,0.027,-1.35,-6.03,-4.37,-51.92,-5.9,0.0,-54.45,-6.7,-2.07
1091,0.028999997,-1.35,-6.46,-4.57,-54.21,-5.83,0.0,-55.72,-6.69,-2.09
1092,0.027999999,-1.45,-5.9,-4.24,-50.97,-5.37,0.0,-56.72,-6.64,-2.09
1093,0.027,-0.96,-7.04,-4.59,-55.73,-7.6,0.0,-57.56,-6.72,-2.1
1094,0.028999997,-1.22,-6.78,-4.77,-55.98,-6.41,0.0,-58.72,-6.72,-2.17
1095,0.027999999,-1.38,-6.76,-4.42,-54.54,-5.49,0.0,-59.5,-6.75,-2.28
1096,0.027999999,-1.44,-6.38,-5.1,-56.45,-5.5,0.0,-60.1,-6.8,-2.33
1097,0.027999999,-1.14,-6.96,-5.83,-61.28,-7.11,0.0,-61.22,-6.76,-2.42
1098,0.027,-1.45,-6.44,-4.2,-52.62,-5.18,0.0,-61.8,-6.76,-2.52
1099,0.028999997,-1.47,-6.55,-5.38,-58.28,-5.31,0.0,-62.32,-6.73,-2.47
1100,0.027999999,-1.63,-6.93,-6.57,-65.43,-4.51,0.0,-63.26,-6.62,-2.31
1101,0.027999999,-0.7,-7.25,-5.18,-58.56,-9.04,0.0,-63.87,-6.85,-2.38
1102,0.027999999,-1.26,-7.06,-6.18,-63.37,-6.49,0.0,-64.46,-6.88,-2.36
1103,0.028999997,-1.21,-7.2,-6.34,-64.46,-6.75,0.0,-65.21,-6.93,-2.25
1104,0.027,-1.3,-7.68,-5.43,-61.47,-5.78,0.0,-65.86,-7.08,-2.33
1105,0.027999999,-1.27,-7.2,-6.64,-66.05,-6.45,0.0,-66.43,-7.17,-2.31
1106,0.028999997,-1.17,-7.0,-6.57,-65.03,-7.15,0.0,-67.17,-7.29,-2.3
1107,0.027,-1.19,-7.37,-6.29,-64.58,-6.75,0.0,-67.69,-7.4,-2.22
1108,0.028999997,-1.16,-6.78,-7.23,-67.88,-7.57,0.0,-68.37,-7.55,-1.98
1109,0.027999999,-1.16,-7.28,-7.15,-68.56,-7.17,0.0,-69.21,-7.67,-1.91
1110,0.027,-1.39,-7.73,-6.5,-66.69,-5.49,0.0,-69.53,-7.68,-1.87
1111,0.027999999,-1.03,-7.42,-7.67,-71.18,-7.95,0.0,-70.35,-7.79,-1.75
1112,0.027999999,-1.13,-7.34,-6.87,-67.24,-7.23,0.0,-71.04,-7.8,-1.69
1113,0.027999999,-1.36,-7.38,-7.08,-68.74,-5.95,0.0,-71.5,-7.84,-1.58
1114,0.027999999,-1.1,-7.73,-7.83,-72.68,-7.37,0.0,-72.15,-7.86,-1.51
1115,0.027999999,-1.13,-7.77,-7.69,-72.14,-7.12,0.0,-73.0,-7.77,-1.66
1116,0.027,-1.53,-7.36,-7.26,-69.89,-5.05,0.0,-73.44,-7.6,-1.74
1117,0.027999999,-1.17,-7.7,-7.65,-71.89,-6.94,0.0,-74.06,-7.53,-1.88
1118,0.027999999,-0.95,-8.02,-7.84,-72.84,-7.98,0.0,-74.88,-7.45,-2.13
1119,0.027999999,-1.53,-7.17,-7.36,-70.08,-5.15,0.0,-75.39,-7.36,-2.27
1120,0.027999999,-1.25,-7.69,-7.87,-73.14,-6.55,0.0,-75.96,-7.27,-2.39
1121,0.027999999,-1.13,-7.3,-8.03,-72.98,-7.53,0.0,-76.52,-7.41,-2.38
1122,0.027,-1.13,-7.79,-8.06,-73.94,-7.21,0.0,-77.21,-7.35,-2.48
1123,0.027999999,-1.24,-7.59,-8.37,-75.46,-6.76,0.0,-77.7,-7.34,-2.54
1124,0.027999999,-1.09,-8.68,-8.27,-76.05,-6.85,0.0,-78.35,-7.37,-2.74
1125,0.027999999,-1.01,-7.38,-7.78,-71.6,-8.12,0.0,-78.55,-7.41,-2.71
1126,0.027999999,-0.87,-7.96,-9.12,-78.02,-8.68,0.0,-79.17,-7.42,-2.79
1127,0.027,-1.28,-7.54,-8.84,-77.78,-6.64,0.0,-79.71,-7.35,-2.81
1128,0.027999999,-1.23,-7.73,-8.82,-77.78,-6.79,0.0,-80.11,-7.34,-2.8
1129,0.027999999,-1.13,-7.78,-9.11,-78.8,-7.31,0.0,-80.62,-7.34,-2.69
1130,0.027,-1.03,-7.9,-9.11,-78.54,-7.82,0.0,-81.03,-7.31,-2.69
1131,0.028999997,-1.28,-7.58,-9.09,-79.02,-6.61,0.0,-81.51,-7.3,-2.68
1132,0.027999999,-0.88,-7.96,-9.66,-79.9,-8.65,0.0,-81.89,-7.39,-2.64
1133,0.027,-1.18,-7.87,-9.65,-81.19,-7.02,0.0,-82.6,-7.23,-2.75
1134,0.027999999,-1.14,-7.82,-9.54,-80.59,-7.3,0.0,-82.95,-7.31,-2.84
1135,0.027999999,-1.02,-7.81,-9.89,-81.07,-8.01,0.0,-83.3,-7.28,-2.8
1136,0.027,-1.08,-7.75,-9.8,-81.09,-7.69,0.0,-83.92,-7.16,-2.77
1137,0.028999997,-1.12,-7.69,-9.08,-78.52,-7.49,0.0,-84.04,-7.15,-2.71
1138,0.027999999,-1.24,-7.37,-10.23,-82.61,-7.09,0.0,-84.25,-7.15,-2.53
1139,0.027,-1.14,-7.9,-10.46,-82.69,-7.28,0.0,-84.69,-7.08,-2.43
1140,0.028999997,-1.39,-7.6,-9.67,-81.98,-6.0,0.0,-85.0,-6.98,-2.42
1141,0.027999999,-1.21,-7.71,-10.17,-82.63,-7.0,0.0,-85.25,-6.97,-2.22
1142,0.027999999,-1.11,-7.94,-10.31,-82.45,-7.41,0.0,-85.47,-6.99,-2.08
1143,0.028999997,-1.37,-7.53,-10.87,-83.55,-6.19,0.0,-85.84,-6.93,-1.99
1144,0.027999999,-1.46,-7.63,-10.19,-83.99,-5.58,0.0,-86.31,-6.84,-1.87
1145,0.027999999,-1.02,-8.02,-10.08,-81.7,-7.83,0.0,-86.33,-6.91,-1.78
1146,0.028999997,-1.26,-7.54,-11.34,-81.76,-6.81,0.0,-86.66,-6.83,-1.72
1147,0.027999999,-1.3,-7.6,-9.68,-81.6,-6.52,0.0,-86.96,-6.86,-1.63
1148,0.027999999,-1.23,-7.71,-10.75,-83.02,-6.89,0.0,-86.95,-6.96,-1.49
1149,0.027999999,-1.31,-7.69,-10.8,-83.43,-6.43,0.0,-87.31,-6.9,-1.44
1150,0.028999997,-1.56,-7.53,-10.38,-84.82,-5.05,0.0,-87.55,-6.77,-1.34
1151,0.027999999,-1.31,-7.72,-10.87,-83.33,-6.44,0.0,-87.58,-6.73,-1.22
1152,0.027999999,-1.31,-7.62,-11.14,-82.69,-6.46,0.0,-87.68,-6.72,-1.22
1153,0.028999997,-1.41,-7.75,-10.64,-84.13,-5.85,0.0,-87.95,-6.68,-1.17
1154,0.027999999,-1.34,-7.81,-11.08,-83.13,-6.19,0.0,-88.0,-6.64,-1.08
1155,0.027999999,-1.26,-7.98,-11.1,-82.77,-6.55,0.0,-88.15,-6.59,-1.13
1156,0.028999997,-1.48,-7.65,-10.85,-84.29,-5.46,0.0,-88.43,-6.61,-1.09
1157,0.027999999,-1.48,-7.59,-11.23,-83.25,-5.49,0.0,-88.54,-6.61,-1.03
1158,0.028999997,-1.33,-7.77,-11.45,-81.9,-6.26,0.0,-88.53,-6.59,-1.09
1159,0.027999999,-1.45,-7.54,-11.03,-83.66,-5.7,0.0,-88.7,-6.54,-1.11
1160,0.027999999,-1.36,-7.53,-11.06,-83.11,-6.22,0.0,-88.83,-6.62,-1.06
1161,0.028999997,-1.41,-7.43,-11.71,-80.89,-5.97,0.0,-88.84,-6.65,-0.96
1162,0.027999999,-1.28,-7.8,-11.26,-82.35,-6.51,0.0,-88.86,-6.66,-0.98
1163,0.027999999,-1.47,-7.18,-11.84,-80.24,-5.73,0.0,-88.81,-6.8,-0.84
1164,0.027999999,-1.47,-7.56,-11.73,-81.15,-5.51,0.0,-88.88,-6.73,-0.71
1165,0.027999999,-1.24,-7.89,-11.21,-82.35,-6.7,0.0,-88.78,-6.79,-0.65
1166,0.027999999,-1.65,-7.29,-12.04,-79.86,-4.6,0.0,-88.69,-6.72,-0.57
1167,0.027999999,-1.42,-7.72,-11.53,-81.94,-5.77,0.0,-88.82,-6.74,-0.43
1168,0.028999997,-1.45,-7.59,-11.67,-81.33,-5.65,0.0,-88.89,-6.76,-0.3
1169,0.027,-1.24,-7.98,-11.68,-80.82,-6.64,0.0,-88.72,-6.8,-0.3
1170,0.028999997,-1.54,-7.45,-11.88,-80.55,-5.15,0.0,-88.73,-6.72,-0.26
1171,0.027,-1.56,-7.6,-11.78,-81.25,-4.97,0.0,-88.69,-6.66,-0.17
1172,0.027999999,-1.37,-7.72,-12.01,-79.65,-6.01,0.0,-88.59,-6.68,-0.1
1173,0.028999997,-1.68,-7.31,-12.35,-78.3,-4.39,0.0,-88.54,-6.59,-0.05
1174,0.027,-1.37,-7.87,-11.81,-80.7,-5.94,0.0,-88.45,-6.56,-0.05
1175,0.028999997,-1.74,-7.16,-12.15,-79.4,-4.08,0.0,-88.42,-6.45,-0.1
1176,0.027999999,-1.75,-7.21,-12.37,-78.22,-3.99,0.0,-88.44,-6.38,-0.05
1177,0.027999999,-1.45,-7.52,-12.06,-79.45,-5.64,0.0,-88.38,-6.33,-0.09
1178,0.027999999,-1.52,-7.32,-12.73,-75.93,-5.29,0.0,-88.19,-6.24,-0.14
1179,0.027999999,-1.5,-7.39,-11.8,-80.75,-5.43,0.0,-88.26,-6.23,-0.11
1180,0.027999999,-1.38,-7.57,-12.0,-79.57,-6.05,0.0,-88.13,-6.36,0.02
1181,0.027999999,-1.4,-7.59,-12.25,-78.46,-5.87,0.0,-87.97,-6.42,0.1
1182,0.027999999,-1.73,-7.19,-12.15,-79.42,-4.13,0.0,-87.75,-6.41,0.18
1183,0.027,-1.54,-7.55,-12.84,-75.7,-5.03,0.0,-87.43,-6.46,0.31
1184,0.027,-1.45,-7.71,-12.57,-77.12,-5.52,0.0,-87.23,-6.53,0.29
1185,0.027999999,-1.57,-7.39,-12.53,-77.2,-4.97,0.0,-87.03,-6.46,0.27
1186,0.027,-1.47,-7.38,-12.61,-76.54,-5.53,0.0,-86.81,-6.38,0.27
1187,0.027999999,-1.78,-7.19,-12.51,-77.49,-3.8,0.0,-86.52,-6.31,0.34
1188,0.027999999,-1.54,-7.44,-12.95,-74.99,-5.05,0.0,-86.12,-6.35,0.47
1189,0.027,-1.68,-7.52,-12.39,-78.38,-4.25,0.0,-85.98,-6.3,0.5
1190,0.027999999,-1.74,-7.39,-12.65,-76.9,-3.96,0.0,-85.71,-6.27,0.56
1191,0.027999999,-1.57,-7.53,-12.66,-76.67,-4.88,0.0,-85.49,-6.28,0.65
1192,0.027,-1.54,-7.49,-12.71,-76.32,-5.09,0.0,-85.28,-6.27,0.71
1193,0.027999999,-1.84,-7.17,-13.03,-74.58,-3.42,0.0,-85.08,-6.15,0.78
1194,0.027,-1.45,-7.49,-12.25,-78.48,-5.68,0.0,-85.1,-6.13,0.83
1195,0.027999999,-1.6,-7.39,-12.43,-77.81,-4.78,0.0,-84.97,-6.13,0.87
1196,0.027,-1.86,-6.99,-13.66,-70.73,-3.26,0.0,-84.72,-5.99,0.95
1197,0.027,-1.61,-7.79,-12.38,-78.56,-4.55,0.0,-84.93,-5.87,0.93
1198,0.027999999,-1.7,-7.16,-12.72,-76.11,-4.25,0.0,-84.71,-5.88,0.89
1199,0.027999999,-1.59,-7.26,-12.99,-74.6,-4.85,0.0,-84.56,-5.91,1.0
1200,0.027,-1.59,-7.39,-13.16,-73.88,-4.76,0.0,-84.35,-5.87,1.04
1201,0.027999999,-1.74,-7.14,-13.49,-71.86,-3.97,0.0,-84.09,-5.72,1.04
1202,0.027999999,-1.71,-7.49,-12.82,-76.05,-4.06,0.0,-83.84,-5.53,0.92
1203,0.027999999,-1.92,-7.03,-12.74,-76.12,-2.97,0.0,-83.49,-5.38,0.87
1204,0.027999999,-1.79,-7.09,-13.38,-72.4,-3.71,0.0,-83.08,-5.28,0.84
1205,0.027999999,-1.96,-7.04,-12.86,-75.48,-2.75,0.0,-82.69,-5.12,0.75
1206,0.027,-1.71,-7.1,-12.99,-74.52,-4.22,0.0,-82.17,-5.04,0.68
1207,0.027999999,-1.58,-7.1,-12.55,-76.7,-5.04,0.0,-81.6,-5.15,0.71
1208,0.027999999,-1.72,-7.01,-13.88,-69.42,-4.08,0.0,-80.8,-5.06,0.68
1209,0.027,-1.62,-7.48,-11.97,-80.38,-4.69,0.0,-80.36,-5.0,0.64
1210,0.027999999,-1.41,-7.48,-12.96,-74.69,-5.81,0.0,-79.34,-5.06,0.58
1211,0.027,-1.34,-7.49,-13.39,-72.37,-6.12,0.0,-78.71,-4.95,0.43
1212,0.027999999,-1.52,-7.63,-11.8,-81.04,-5.2,0.0,-78.07,-5.05,0.55
1213,0.027999999,-2.53,-7.37,-12.94,-75.78,0.75,0.0,-76.89,-5.01,0.73
1214,0.025999999,-1.61,-7.6,-12.69,-76.71,-4.63,0.0,-76.06,-4.99,0.87
1215,0.027999999,-1.93,-7.43,-11.5,-83.7,-2.84,0.0,-75.3,-4.85,1.09
1216,0.027999999,-2.2,-7.21,-10.27,-87.77,-1.28,0.0,-74.15,-4.92,1.39
1217,0.027,-1.27,-7.4,-14.1,-68.45,-6.42,0.0,-72.52,-5.29,1.78
1218,0.027999999,-1.62,-8.19,-11.14,-84.58,-4.39,0.0,-72.44,-4.95,1.83
1219,0.027999999,-2.52,-7.39,-9.6,-84.06,0.73,0.0,-71.41,-4.78,2.16
1220,0.025999999,-1.97,-7.83,-11.0,-86.46,-2.51,0.0,-69.64,-5.08,2.8
1221,0.027999999,-0.98,-8.73,-12.85,-75.94,-7.4,0.0,-69.05,-5.09,3.03
1222,0.027999999,-2.43,-7.9,-8.59,-78.71,0.15,0.0,-68.28,-4.58,2.96
1223,0.027,-2.42,-7.39,-9.0,-80.5,0.12,0.0,-67.17,-4.26,3.11
1224,0.027,-1.78,-8.11,-10.84,-86.13,-3.55,0.0,-66.51,-4.1,3.34
1225,0.027,-1.92,-8.18,-9.87,-85.21,-2.72,0.0,-66.4,-3.68,3.23
1226,0.027999999,-2.51,-7.26,-8.36,-76.53,0.63,0.0,-65.66,-3.3,3.36
1227,0.027,-1.71,-8.33,-9.09,-81.03,-3.78,0.0,-64.84,-3.3,3.61
1228,0.027,-1.73,-8.07,-9.48,-82.74,-3.8,0.0,-64.38,-3.26,3.76
1229,0.027,-2.04,-7.23,-8.38,-76.46,-2.21,0.0,-63.71,-3.19,4.07
1230,0.027999999,-2.48,-7.17,-7.7,-72.61,0.49,0.0,-62.59,-3.12,4.54
1231,0.025999999,-2.02,-8.25,-9.89,-85.68,-2.11,0.0,-62.14,-3.15,4.95
1232,0.027999999,-2.39,-8.56,-8.37,-78.25,-0.09,0.0,-61.96,-2.85,5.0
1233,0.027999999,-2.92,-6.61,-6.05,-62.1,3.07,0.0,-60.35,-2.66,5.34
1234,0.025999999,-2.12,-7.76,-9.03,-80.9,-1.65,0.0,-59.46,-2.81,5.99
1235,0.027999999,-2.06,-8.46,-8.21,-77.13,-1.82,0.0,-59.72,-2.43,5.94
1236,0.025999999,-3.01,-6.96,-5.74,-61.47,3.41,0.0,-58.9,-2.03,5.77
1237,0.027999999,-2.93,-6.77,-6.06,-62.61,3.09,0.0,-57.42,-1.98,6.15
1238,0.027,-2.05,-7.98,-9.07,-81.21,-2.01,0.0,-57.6,-1.84,6.08
1239,0.027,-2.56,-7.51,-5.38,-61.36,0.85,0.0,-57.21,-1.53,5.64
1240,0.027999999,-3.2,-6.0,-5.83,-58.97,4.91,0.0,-56.14,-1.22,5.54
1241,0.027,-2.45,-7.34,-7.26,-70.46,0.26,0.0,-55.43,-1.12,5.61
1242,0.027,-2.16,-7.66,-5.89,-64.11,-1.29,0.0,-54.89,-0.96,5.46
1243,0.027999999,-2.81,-6.43,-4.89,-55.91,2.32,0.0,-53.66,-0.85,5.57
1244,0.027,-1.94,-6.71,-4.73,-56.05,-2.51,0.0,-51.8,-1.4,6.06
1245,0.027,-2.47,-7.91,-6.18,-66.08,0.35,0.0,-51.17,-1.62,6.19
1246,0.027999999,-2.79,-6.57,-4.76,-55.75,2.15,0.0,-50.32,-1.33,5.95
1247,0.027,-2.93,-5.81,-3.57,-48.02,2.89,0.0,-48.47,-1.23,6.14
1248,0.025999999,-1.92,-7.23,-6.5,-66.04,-2.75,0.0,-47.07,-1.43,6.4
1249,0.027999999,-2.1,-7.01,-5.0,-58.21,-1.63,0.0,-46.57,-1.34,6.13
1250,0.027,-2.85,-5.07,-1.44,-37.67,2.22,0.0,-44.33,-1.36,6.07
1251,0.027,-3.51,-4.4,-3.26,-40.84,6.51,0.0,-40.12,-1.48,6.95
1252,0.027,-1.75,-7.73,-8.53,-77.56,-3.78,0.0,-39.18,-1.47,7.62
1253,0.027,-2.27,-6.6,-3.35,-49.93,-0.67,0.0,-39.45,-0.9,7.04
1254,0.027999999,-3.82,-3.86,-0.0,-28.73,6.7,0.0,-38.0,-0.27,6.69
1255,0.027,-3.26,-4.45,-2.23,-37.54,4.65,0.0,-35.8,-0.17,7.15
1256,0.027,-2.43,-6.11,-4.09,-51.35,0.17,0.0,-35.33,-0.16,7.28
1257,0.027,-2.71,-5.12,-0.93,-36.39,1.49,0.0,-34.86,-0.1,7.05
1258,0.027,-3.08,-3.83,-0.33,-29.57,3.28,0.0,-33.25,-0.06,7.26
1259,0.027,-2.46,-4.61,-4.05,-45.33,0.35,0.0,-31.51,-0.22,7.8
1260,0.027,-1.89,-5.79,-3.22,-46.58,-2.75,0.0,-31.5,-0.25,7.66
1261,0.027,-2.92,-3.64,-0.48,-29.11,2.56,0.0,-30.82,-0.07,7.34
1262,0.027,-3.19,-3.23,-0.5,-27.34,3.95,0.0,-29.22,-0.01,7.54
1263,0.027999999,-2.44,-3.77,-2.95,-37.08,0.23,0.0,-27.67,-0.06,8.03
1264,0.025999999,-2.11,-4.16,-2.6,-37.64,-1.65,0.0,-27.85,0.0,7.95
1265,0.027999999,-2.94,-3.37,-0.17,-27.23,2.62,0.0,-27.53,0.19,7.66
1266,0.027,-3.31,-2.53,-0.5,-24.07,4.71,0.0,-26.29,0.32,7.84
1267,0.025999999,-2.75,-2.97,-2.41,-31.28,2.11,0.0,-25.19,0.33,8.35
1268,0.027,-2.31,-3.92,-1.86,-34.14,-0.52,0.0,-24.93,0.33,8.48
1269,0.025999999,-2.85,-2.97,-0.83,-26.95,2.35,0.0,-24.56,0.44,8.39
1270,0.027999999,-3.07,-2.42,-0.56,-23.73,3.47,0.0,-23.66,0.54,8.57
1271,0.027,-2.75,-3.27,-1.66,-30.54,1.92,0.0,-23.2,0.71,8.8
1272,0.025999999,-2.52,-2.97,-0.53,-26.3,0.6,0.0,-22.79,0.72,8.8
1273,0.027,-2.76,-2.43,-0.51,-23.72,1.85,0.0,-22.03,0.73,8.9
1274,0.027,-2.77,-2.42,-0.79,-24.24,1.95,0.0,-21.29,0.68,9.16
1275,0.025999999,-2.43,-2.62,-1.01,-25.75,0.17,0.0,-20.86,0.65,9.2
1276,0.027,-2.77,-2.5,-0.44,-23.88,1.92,0.0,-20.48,0.72,9.14
1277,0.027999999,-2.86,-1.83,-0.33,-20.46,2.37,0.0,-19.83,0.7,9.22
1278,0.025999999,-2.82,-1.96,-0.33,-21.09,2.2,0.0,-19.06,0.72,9.38
1279,0.027,-2.56,-2.14,-0.82,-22.96,0.85,0.0,-18.54,0.69,9.45
1280,0.025999999,-2.92,-1.73,-0.58,-20.4,2.79,0.0,-18.22,0.76,9.48
1281,0.027,-3.01,-1.63,-0.1,-19.04,3.13,0.0,-17.69,0.87,9.63
1282,0.027,-2.66,-1.8,-0.25,-20.17,1.33,0.0,-16.89,0.91,9.85
1283,0.027,-2.71,-1.98,-1.05,-22.59,1.7,0.0,-16.59,0.94,9.84
1284,0.027,-3.01,-1.34,-0.22,-17.79,3.19,0.0,-16.44,1.11,9.67
1285,0.027,-3.01,-1.14,0.39,-15.89,3.06,0.0,-15.78,1.26,9.6
1286,0.025999999,-2.94,-1.24,-0.72,-18.15,2.95,0.0,-15.03,1.47,9.59
1287,0.027,-2.65,-1.38,-0.51,-18.53,1.32,0.0,-14.7,1.61,9.42
1288,0.025999999,-2.84,-0.94,0.21,-15.17,2.23,0.0,-14.3,1.74,9.31
1289,0.027,-3.05,-0.73,0.03,-14.35,3.39,0.0,-13.43,1.92,9.36
1290,0.027,-2.97,-0.67,-0.19,-14.36,3.02,0.0,-12.37,2.12,9.5
1291,0.025999999,-2.87,-0.78,-0.08,-14.77,2.46,0.0,-11.53,2.24,9.67
1292,0.027,-2.89,-0.6,0.14,-13.57,2.51,0.0,-10.42,2.38,9.77
1293,0.027,-3.01,-0.62,-0.17,-14.04,3.22,0.0,-9.61,2.53,9.75
1294,0.025999999,-3.13,-0.05,-0.13,-11.03,3.93,0.0,-8.96,2.73,9.72
1295,0.027,-3.06,-0.03,0.7,-10.16,3.3,0.0,-8.1,3.03,9.65
1296,0.025999999,-3.02,0.35,0.52,-8.42,3.15,0.0,-7.14,3.27,9.61
1297,0.025999999,-3.15,0.18,-0.41,-10.09,4.13,0.0,-6.63,3.64,9.38
1298,0.025999999,-3.11,0.1,0.38,-9.75,3.63,0.0,-6.48,3.82,9.07
1299,0.025999999,-3.19,0.26,1.01,-8.46,3.87,0.0,-6.05,3.89,8.71
1300,0.025999999,-3.2,0.68,0.45,-6.76,4.13,0.0,-5.44,4.05,8.49
1301,0.025,-3.1,0.39,-0.07,-8.63,3.76,0.0,-5.12,4.2,8.24
1302,0.025999999,-3.32,0.62,0.09,-7.28,4.86,0.0,-4.9,4.91,7.92
1303,0.025999999,-3.02,0.58,0.77,-7.05,3.11,0.0,-4.13,4.92,7.61
1304,0.025,-3.21,1.39,0.39,-3.14,4.23,0.0,-3.45,5.17,7.46
1305,0.025,-3.41,1.0,-0.07,-5.38,5.43,0.0,-3.16,5.52,7.26
1306,0.025999999,-3.4,1.09,0.62,-4.56,5.06,0.0,-2.66,5.73,7.01
1307,0.025,-3.67,1.52,0.41,-2.41,6.6,0.0,-1.99,6.05,6.91
1308,0.025999999,-3.64,1.28,-0.67,-4.09,7.13,0.0,-1.52,6.44,6.71
1309,0.025,-3.35,1.25,0.5,-3.79,4.89,0.0,-1.67,6.47,6.52
1310,0.025999999,-3.62,1.41,0.54,-2.94,6.24,0.0,-1.55,6.51,6.35
1311,0.025,-3.57,1.69,0.45,-1.56,6.05,0.0,-1.27,6.41,6.34
1312,0.025999999,-3.6,1.88,0.08,-0.58,6.4,0.0,-1.04,6.14,6.45
1313,0.025999999,-3.19,1.41,0.4,-3.03,4.11,0.0,-0.89,5.64,6.57
1314,0.025,-3.4,1.45,0.42,-2.78,5.16,0.0,-0.57,5.16,6.64
1315,0.025999999,-3.28,1.72,0.3,-1.41,4.62,0.0,-0.29,4.8,6.8
1316,0.025,-3.48,1.47,-0.06,-2.83,5.87,0.0,-0.13,4.57,6.97
1317,0.025999999,-3.14,1.48,0.39,-2.64,3.83,0.0,-0.02,4.41,7.08
1318,0.025999999,-3.05,1.69,0.53,-1.54,3.36,0.0,0.09,4.24,7.2
1319,0.024,-3.25,2.05,0.4,0.3,4.44,0.0,0.35,4.09,7.37
1320,0.025999999,-3.18,2.0,0.51,0.05,4.01,0.0,0.55,3.92,7.6
1321,0.024,-3.14,1.93,0.41,-0.29,3.85,0.0,0.92,3.68,7.81
1322,0.025999999,-3.12,2.09,0.42,0.55,3.71,0.0,1.12,3.44,8.08
1323,0.025,-3.13,2.04,0.15,0.28,3.88,0.0,1.16,3.33,8.38
1324,0.024,-3.0,1.49,0.43,-2.6,3.11,0.0,1.27,3.36,8.52
1325,0.025999999,-2.97,1.87,-0.31,-0.68,3.14,0.0,1.69,3.57,8.67
1326,0.025,-2.85,2.29,0.41,1.55,2.31,0.0,1.93,3.7,8.77
1327,0.025,-3.06,2.0,0.84,0.06,3.3,0.0,2.22,3.89,8.87
1328,0.025,-3.25,2.34,0.16,1.86,4.49,0.0,2.73,4.3,8.9
1329,0.025,-2.86,2.4,0.4,2.12,2.41,0.0,3.28,4.76,8.92
1330,0.025999999,-3.34,2.42,0.17,2.31,4.96,0.0,3.51,5.16,8.92
1331,0.025,-3.43,2.48,0.3,2.6,5.4,0.0,3.43,5.33,8.89
1332,0.025,-3.45,2.68,0.54,3.55,5.37,0.0,3.53,5.51,8.88
1333,0.025,-3.79,2.75,-0.01,4.08,7.45,0.0,3.78,5.88,8.95
1334,0.025999999,-3.48,2.63,0.13,3.43,5.75,0.0,3.81,6.14,9.05
1335,0.025,-3.65,2.46,-0.49,2.64,7.05,0.0,3.91,6.45,9.1
1336,0.025,-3.41,2.62,0.25,3.34,5.3,0.0,4.0,6.71,9.06
1337,0.025999999,-3.79,2.91,0.33,4.77,7.23,0.0,3.95,6.88,9.09
1338,0.024,-3.41,2.52,0.11,2.82,5.39,0.0,3.74,7.09,9.05
1339,0.025999999,-3.7,2.7,0.47,3.66,6.67,0.0,3.59,7.28,9.02
1340,0.025999999,-3.81,2.89,-0.0,4.82,7.54,0.0,3.49,7.5,9.1
1341,0.025,-3.73,2.96,0.56,4.96,6.78,0.0,3.51,7.87,9.37
1342,0.025,-3.63,2.18,0.53,0.99,6.3,0.0,3.64,8.33,9.67
1343,0.025,-3.74,2.4,0.1,2.2,7.12,0.0,4.1,8.84,9.83
1344,0.025999999,-4.11,2.58,-0.33,3.26,9.43,0.0,4.34,9.34,10.05
1345,0.025999999,-4.21,3.2,0.76,6.05,9.03,0.0,5.04,9.64,10.24
1346,0.025,-3.83,3.01,0.09,5.41,7.6,0.0,4.9,9.54,10.6
1347,0.025999999,-4.21,0.21,0.82,-8.76,8.92,0.0,4.3,9.8,9.94
1348,0.025,-4.45,2.71,0.72,3.59,10.26,0.0,3.92,10.24,9.48
1349,0.025999999,-4.43,3.36,0.28,7.09,10.52,0.0,3.81,10.63,9.35
1350,0.025999999,-4.61,2.71,0.27,3.75,11.48,0.0,3.74,10.89,9.37
1351,0.025,-3.91,2.88,0.07,4.72,8.02,0.0,3.6,10.91,9.42
1352,0.025999999,-4.6,2.83,0.42,4.31,11.29,0.0,3.4,10.81,9.62
1353,0.025,-4.76,2.78,0.6,3.95,11.9,0.0,3.41,10.62,9.86
1354,0.027,-4.38,2.66,0.31,3.49,10.28,0.0,3.05,10.16,10.08
1355,0.025999999,-4.54,2.62,0.38,3.25,11.01,0.0,2.9,9.98,10.22
1356,0.025999999,-4.11,3.07,0.8,5.36,8.5,0.0,3.62,9.78,10.35
1357,0.025999999,-4.75,2.82,0.4,4.26,12.05,0.0,3.41,9.73,10.48
1358,0.025,-3.98,2.63,0.64,3.24,8.01,0.0,3.28,9.49,10.71
1359,0.025999999,-3.76,2.31,0.04,1.73,7.3,0.0,3.04,9.02,10.91
1360,0.025999999,-5.08,3.33,1.73,6.09,12.2,0.0,4.39,9.14,11.33
1361,0.025999999,-3.36,2.51,0.55,2.65,4.94,0.0,4.1,8.83,10.94
1362,0.025999999,-4.68,2.77,0.24,4.06,11.86,0.0,4.22,8.91,10.85
1363,0.025,-3.73,2.47,-0.11,2.64,7.24,0.0,4.11,8.83,10.86
1364,0.027,-4.46,2.85,0.13,4.51,10.85,0.0,4.43,9.0,10.42
1365,0.025999999,-4.17,2.32,0.39,1.72,9.15,0.0,4.49,9.02,10.22
1366,0.025,-3.62,2.32,-0.14,1.8,6.66,0.0,4.41,8.89,9.79
1367,0.025999999,-4.63,3.03,-0.41,5.7,12.32,0.0,4.13,8.86,9.35
1368,0.025,-3.59,2.14,1.24,0.73,5.74,0.0,4.01,8.71,9.09
1369,0.025999999,-4.05,2.6,0.12,3.22,8.74,0.0,4.08,8.6,8.93
1370,0.025999999,-3.66,2.25,-0.03,1.41,6.82,0.0,3.84,8.51,8.61
1371,0.024,-4.42,2.83,0.29,4.36,10.5,0.0,3.83,8.76,8.36
1372,0.025999999,-4.35,2.36,0.38,1.92,10.05,0.0,3.67,8.45,8.31
1373,0.025,-3.7,2.24,-0.14,1.4,7.11,0.0,3.54,8.04,8.2
1374,0.025999999,-3.72,2.88,1.31,4.28,6.33,0.0,3.23,7.51,7.91
1375,0.025999999,-3.86,2.63,0.39,3.33,7.57,0.0,3.28,7.51,7.64
1376,0.024,-3.5,2.2,0.32,1.13,5.73,0.0,3.39,7.96,7.5
1377,0.025999999,-3.62,2.31,0.03,1.71,6.57,0.0,3.3,8.22,7.25
1378,0.025,-4.04,2.58,0.44,3.05,8.47,0.0,3.38,8.63,7.2
1379,0.025,-3.84,2.22,-0.09,1.23,7.81,0.0,3.51,9.08,7.15
1380,0.025999999,-3.96,2.57,0.16,3.06,8.24,0.0,3.55,9.33,7.16
1381,0.025,-4.14,2.57,0.14,3.09,9.18,0.0,3.55,9.61,7.19
1382,0.025,-4.03,2.68,0.46,3.57,8.4,0.0,3.77,10.12,7.1
1383,0.025,-4.25,2.35,-0.22,1.96,10.12,0.0,3.85,10.8,6.87
1384,0.027,-4.31,3.05,0.6,5.33,9.66,0.0,4.18,11.46,6.59
1385,0.025999999,-3.27,1.96,-0.16,-0.13,4.78,0.0,4.28,12.1,6.15
1386,0.025,-4.31,2.72,-0.08,3.94,10.28,0.0,4.62,12.45,6.24
1387,0.025999999,-4.62,2.9,-0.1,4.88,11.91,0.0,4.53,12.84,6.16
1388,0.025999999,-5.14,3.49,0.31,7.62,14.01,0.0,4.67,13.19,6.15
1389,0.025999999,-4.63,2.74,0.08,3.94,11.79,0.0,4.79,13.61,6.16
1390,0.025999999,-4.78,3.01,-0.03,5.38,12.68,0.0,4.85,13.93,6.05
1391,0.025,-5.07,3.23,0.05,6.46,13.98,0.0,4.91,14.39,5.92
1392,0.027,-5.09,3.12,0.17,5.81,14.0,0.0,5.05,15.04,5.86
1393,0.025,-5.25,3.06,-0.09,5.61,15.14,0.0,5.24,15.73,5.83
1394,0.025999999,-5.21,2.88,-0.35,4.82,15.31,0.0,5.29,16.5,5.74
1395,0.025999999,-5.37,2.99,-0.06,5.23,15.69,0.0,5.47,18.07,5.53
1396,0.025999999,-6.03,3.47,-0.18,7.67,19.06,0.0,5.75,18.81,5.63
1397,0.025999999,-5.58,2.94,-0.4,5.08,17.29,0.0,5.91,19.51,5.76
1398,0.025999999,-5.72,2.96,-0.61,5.26,18.35,0.0,5.75,19.79,5.76
1399,0.025999999,-1.62,-1.08,-2.12,-19.86,-5.0,0.0,4.97,19.65,5.41
1400,0.027,-6.23,3.41,-0.45,7.51,20.52,0.0,5.36,20.42,5.5
1401,0.025999999,-6.01,3.23,-1.22,7.08,20.9,0.0,5.46,20.9,5.56
1402,0.025999999,-6.02,3.04,-0.77,5.77,20.14,0.0,5.68,21.24,5.53
1403,0.025999999,-6.39,3.54,-0.74,8.31,21.84,0.0,5.9,21.62,5.53
1404,0.025999999,-6.43,3.52,-1.09,8.46,22.77,0.0,6.37,22.33,5.62
1405,0.025999999,-6.35,3.32,-0.47,6.98,21.2,0.0,6.69,23.27,5.65
1406,0.025999999,-5.91,3.44,1.35,6.68,16.26,0.0,10.41,25.04,5.37
1407,0.025999999,-6.89,3.87,-0.75,9.87,24.19,0.0,10.66,25.57,5.47
1408,0.027,-6.8,3.65,-1.19,9.12,24.78,0.0,10.79,26.11,5.58
1409,0.025,-6.89,3.62,-0.63,8.5,24.03,0.0,10.68,26.38,5.61
1410,0.027,-7.06,3.66,-1.12,9.04,25.89,0.0,10.75,26.94,5.56
1411,0.025,-7.0,3.64,-1.31,9.07,26.05,0.0,10.67,27.4,5.52
1412,0.027,-7.27,3.78,-1.36,9.75,27.44,0.0,10.64,27.89,5.37
1413,0.027,-7.14,3.95,0.05,9.57,23.69,0.0,11.47,28.35,5.21
1414,0.025,-7.12,3.49,-1.93,8.69,28.27,0.0,11.34,28.91,5.11
1415,0.027,-7.48,3.75,-1.18,9.4,27.97,0.0,11.19,29.27,5.01
1416,0.025,-7.43,3.58,-1.3,8.58,28.12,0.0,11.06,29.66,4.85
1417,0.027,-7.59,3.6,-1.89,9.08,30.45,0.0,10.9,29.99,4.67
1418,0.027,-7.62,3.73,-1.5,9.45,29.47,0.0,10.75,30.32,4.51
1419,0.025,-7.76,3.65,-1.5,8.94,30.16,0.0,10.69,30.71,4.32
1420,0.027,-7.71,3.68,-2.1,9.6,31.56,0.0,10.64,31.12,4.31
1421,0.027,-7.84,3.76,-1.77,9.7,31.22,0.0,10.38,31.38,4.4
1422,0.025,-7.86,3.89,-1.58,10.27,30.73,0.0,10.45,31.72,4.43
1423,0.027,-7.96,3.71,-1.7,9.33,31.61,0.0,10.43,31.92,4.4
1424,0.025999999,-7.97,3.79,-1.64,9.72,31.44,0.0,10.25,32.2,4.33
1425,0.025999999,-7.92,3.62,-1.38,8.67,30.58,0.0,10.16,32.58,4.17
1426,0.027,-7.91,3.58,-1.5,8.53,30.88,0.0,10.11,32.82,4.01
1427,0.025999999,-8.16,3.7,-1.78,9.24,32.76,0.0,10.05,33.12,3.9
1428,0.025999999,-8.09,3.5,-1.92,8.3,32.92,0.0,9.98,33.48,3.82
1429,0.027,-8.23,3.64,-1.47,8.67,32.22,0.0,9.93,33.74,3.66
1430,0.025,-8.1,3.51,-2.27,8.57,34.05,0.0,9.86,34.07,3.39
1431,0.027,-8.28,3.51,-1.82,8.2,33.5,0.0,9.88,34.31,3.02
1432,0.025,-8.26,3.53,-1.92,8.38,33.68,0.0,9.85,34.42,2.74
1433,0.025999999,-8.31,3.41,-2.31,7.96,35.18,0.0,9.64,34.62,2.57
1434,0.027,-8.55,3.44,-1.88,7.75,34.91,0.0,9.39,34.81,2.4
1435,0.025,-8.41,3.53,-2.28,8.55,35.48,0.0,9.26,35.0,2.34
1436,0.027,-8.54,3.24,-2.62,7.09,37.33,0.0,9.13,35.47,2.3
1437,0.025,-8.88,3.95,-3.43,11.49,41.2,0.0,9.34,36.62,2.37
1438,0.027,-8.37,2.94,-1.83,5.16,34.14,0.0,9.38,37.06,2.26
1439,0.025999999,-8.39,3.16,-2.39,6.59,35.93,0.0,9.19,37.26,2.03
1440,0.025,-8.69,3.5,-2.4,8.34,37.11,0.0,8.72,37.7,1.82
1441,0.027,-8.92,1.78,-1.96,-1.12,37.14,0.0,9.07,37.74,2.01
1442,0.025,-7.77,-1.22,-2.51,-18.32,31.74,0.0,10.34,42.11,2.17
1443,0.027999999,-8.81,3.02,-3.76,6.27,42.96,0.0,10.53,43.01,2.21
1444,0.025999999,-9.28,3.69,-2.34,9.0,39.29,0.0,10.43,43.2,2.36
1445,0.025999999,-9.43,4.1,-3.05,11.6,42.0,0.0,10.36,42.94,2.74
1446,0.027,-9.4,4.11,-3.82,12.32,44.7,0.0,10.71,43.24,3.16
1447,0.027,-9.16,3.55,-2.96,8.72,41.06,0.0,10.7,43.61,3.2
1448,0.025999999,-9.47,3.58,-3.4,8.98,43.9,0.0,10.73,44.1,3.06
1449,0.025999999,-9.44,4.28,-3.16,12.64,42.23,0.0,10.72,44.35,3.06
1450,0.025999999,-9.32,3.45,-3.3,8.27,43.02,0.0,10.24,44.59,3.11
1451,0.027,-9.46,3.8,-3.25,10.1,43.1,0.0,9.71,44.46,3.26
1452,0.025999999,-9.65,4.01,-3.33,11.14,43.99,0.0,9.15,44.33,3.37
1453,0.025999999,-9.71,3.92,-3.59,10.85,45.24,0.0,8.49,44.74,3.59
1454,0.027,-9.57,3.78,-3.12,9.84,43.1,0.0,8.03,45.09,3.79
1455,0.025,-9.54,3.55,-3.29,8.7,43.81,0.0,7.5,45.42,3.92
1456,0.025999999,-9.7,3.67,-3.62,9.49,45.58,0.0,7.15,45.79,3.91
1457,0.027,-9.76,3.72,-3.53,9.64,45.44,0.0,6.77,46.06,3.76
1458,0.025,-9.87,3.26,-3.6,7.08,46.49,0.0,6.22,46.64,3.84
1459,0.027,-9.78,3.63,-3.61,9.21,45.92,0.0,5.83,46.95,3.79
1460,0.025999999,-9.71,3.45,-4.13,8.55,47.92,0.0,5.56,47.43,3.53
1461,0.025,-9.71,3.18,-3.8,6.81,46.75,0.0,5.08,48.07,3.18
1462,0.027,-9.97,3.15,-3.48,6.41,46.52,0.0,4.65,48.4,2.82
1463,0.025,-10.03,3.16,-4.03,6.63,48.95,0.0,4.36,48.84,2.6
1464,0.027,-10.3,3.23,-3.71,6.78,48.57,0.0,4.19,49.49,2.35
1465,0.025999999,-10.24,2.96,-3.78,5.37,48.78,0.0,4.11,49.87,2.08
1466,0.025999999,-10.07,2.89,-4.25,5.19,50.23,0.0,4.02,50.3,1.86
1467,0.027,-10.26,2.93,-4.37,5.38,51.42,0.0,3.93,50.86,1.63
1468,0.025,-10.45,3.05,-4.09,5.86,50.82,0.0,3.89,51.37,1.5
1469,0.027,-10.28,3.25,-4.25,7.14,50.71,0.0,3.9,52.15,1.55
1470,0.027,-10.21,2.62,-4.59,3.69,52.39,0.0,3.94,52.66,1.58
1471,0.025,-10.25,2.7,-4.7,4.18,52.99,0.0,3.81,53.25,1.53
1472,0.027,-10.74,3.02,-4.35,5.69,52.9,0.0,3.66,53.68,1.52
1473,0.027,-10.47,2.8,-4.97,4.7,54.97,0.0,3.6,54.27,1.59
1474,0.025,-10.57,2.77,-4.77,4.46,54.39,0.0,3.57,54.76,1.61
1475,0.027,-10.77,2.82,-4.66,4.65,54.49,0.0,3.54,55.2,1.47
1476,0.025999999,-10.65,2.82,-5.02,4.79,55.76,0.0,3.57,55.59,1.37
1477,0.025999999,-10.48,2.57,-5.21,3.45,56.29,0.0,3.4,56.07,1.04
1478,0.027,-11.11,3.01,-4.86,5.61,56.33,0.0,3.46,56.71,0.82
1479,0.025,-10.81,2.69,-5.17,4.0,57.08,0.0,3.61,57.28,0.73
1480,0.027,-10.7,2.14,-5.17,0.9,56.93,0.0,3.61,58.17,0.33
1481,0.025999999,-11.12,2.71,-5.29,4.05,58.56,0.0,3.78,58.97,-0.01
1482,0.027,-11.12,2.58,-5.48,3.35,59.57,0.0,3.93,59.8,-0.34
1483,0.027,-10.76,2.18,-5.88,1.12,60.66,0.0,3.96,60.49,-0.7
1484,0.025999999,-11.1,2.54,-5.61,3.16,60.19,0.0,4.08,61.08,-1.25
1485,0.027,-11.66,2.95,-5.85,5.26,62.52,0.0,4.43,62.07,-1.72
1486,0.027999999,-10.72,1.83,-6.36,-0.96,63.14,0.0,4.43,62.93,-2.02
1487,0.025999999,-10.93,1.96,-5.93,-0.14,61.44,0.0,4.14,63.22,-2.54
1488,0.027,-11.66,2.54,-6.14,3.08,64.25,0.0,4.09,63.26,-2.9
1489,0.027,-11.17,2.21,-6.73,1.32,66.3,0.0,3.81,63.56,-3.25
1490,0.027,-11.07,1.69,-5.78,-1.72,61.03,0.0,3.54,63.72,-3.73
1491,0.027,-11.44,1.93,-5.71,-0.35,61.72,0.0,3.21,63.54,-4.11
1492,0.025999999,-11.48,2.35,-6.58,2.09,66.22,0.0,3.14,63.78,-4.23
1493,0.027999999,-11.21,1.95,-6.54,-0.21,65.43,0.0,2.95,64.23,-4.25
1494,0.027,-10.85,1.44,-6.09,-3.3,61.88,0.0,2.65,64.47,-4.43
1495,0.025999999,-11.28,1.74,-6.56,-1.44,65.67,0.0,2.46,64.81,-4.72
1496,0.027999999,-11.43,1.85,-6.65,-0.78,66.53,0.0,2.3,65.41,-4.82
1497,0.027,-11.3,1.75,-6.19,-1.35,63.79,0.0,2.13,66.14,-4.9
1498,0.027,-11.54,1.73,-6.59,-1.47,66.43,0.0,1.99,66.9,-4.92
1499,0.027,-11.52,1.8,-7.8,-1.15,73.06,0.0,1.86,68.53,-4.83
1500,0.025999999,-11.78,2.01,-6.92,0.11,68.72,0.0,1.74,70.2,-4.69
1501,0.027999999,-11.07,1.18,-6.24,-4.74,63.09,0.0,1.39,70.97,-4.5
1502,0.027,-11.42,1.82,-7.87,-1.05,73.32,0.0,1.26,71.51,-4.37
1503,0.025999999,-11.69,2.05,-7.73,0.34,73.0,0.0,1.11,72.01,-4.23
1504,0.027999999,-11.41,1.87,-8.03,-0.73,74.25,0.0,0.92,72.66,-4.08
1505,0.027,-11.85,1.94,-7.56,-0.26,72.32,0.0,0.74,73.01,-3.93
1506,0.025999999,-11.71,1.84,-7.67,-0.86,72.65,0.0,0.61,73.17,-3.81
1507,0.027999999,-11.75,1.76,-7.58,-1.36,72.19,0.0,0.56,73.16,-3.73
1508,0.025999999,-11.7,1.76,-7.76,-1.34,73.17,0.0,0.54,73.14,-3.67
1509,0.027999999,-11.63,1.97,-7.8,-0.11,73.29,0.0,0.56,73.04,-3.6
1510,0.027,-11.66,2.11,-7.99,0.73,74.42,0.0,0.57,73.07,-3.58
1511,0.025999999,-11.61,2.04,-7.91,0.3,73.87,0.0,0.58,73.12,-3.52
1512,0.027,-11.54,1.97,-7.7,-0.13,72.55,0.0,0.53,72.8,-3.43
1513,0.027999999,-11.6,1.94,-7.99,-0.3,74.37,0.0,0.44,72.52,-3.41
1514,0.025999999,-11.69,2.07,-7.99,0.47,74.5,0.0,0.4,72.4,-3.38
1515,0.027,-11.57,2.06,-7.58,0.43,71.97,0.0,0.36,72.31,-3.26
1516,0.027,-11.42,1.85,-7.43,-0.86,70.77,0.0,0.24,71.98,-3.27
1517,0.027,-11.74,2.01,-7.79,0.1,73.43,0.0,0.22,71.81,-3.31
1518,0.027,-11.59,1.93,-7.45,-0.34,71.26,0.0,0.22,71.77,-3.25
1519,0.025999999,-11.69,2.2,-7.67,1.23,72.62,0.0,0.29,71.88,-3.16
1520,0.027999999,-11.53,2.05,-7.65,0.34,72.28,0.0,0.23,72.04,-3.06
1521,0.027,-11.47,1.99,-7.77,0.01,72.87,0.0,0.2,72.2,-3.02
1522,0.025999999,-11.84,2.24,-7.77,1.46,73.44,0.0,0.18,72.43,-2.9
1523,0.027,-11.64,1.93,-7.56,-0.34,71.98,0.0,0.05,72.56,-2.82
1524,0.027,-11.66,2.09,-7.56,0.59,71.99,0.0,-0.02,72.82,-2.75
1525,0.027,-11.57,1.96,-7.62,-0.16,72.17,0.0,-0.09,73.03,-2.73
1526,0.027,-11.49,2.08,-8.1,0.54,74.82,0.0,-0.05,73.34,-2.7
1527,0.027,-11.69,2.16,-7.63,1.03,72.42,0.0,-0.1,73.68,-2.61
1528,0.027,-11.62,2.07,-7.91,0.51,73.9,0.0,-0.08,73.84,-2.5
1529,0.027999999,-11.67,2.2,-8.2,1.28,75.62,0.0,-0.1,74.09,-2.45
1530,0.025999999,-11.65,2.07,-8.01,0.46,74.5,0.0,-0.21,74.42,-2.34
1531,0.027999999,-11.68,2.01,-7.75,0.11,73.09,0.0,-0.25,74.52,-2.22
1532,0.027,-11.59,2.02,-8.24,0.19,75.79,0.0,-0.26,74.62,-2.19
1533,0.025999999,-11.81,2.17,-7.95,1.07,74.43,0.0,-0.28,74.74,-2.15
1534,0.027999999,-11.61,2.02,-7.88,0.17,73.74,0.0,-0.27,74.86,-2.05
1535,0.027,-11.6,2.05,-8.11,0.35,75.06,0.0,-0.25,74.94,-2.01
1536,0.027,-11.68,2.24,-8.31,1.51,76.23,0.0,-0.2,75.05,-1.96
1537,0.027,-11.6,2.24,-8.44,1.52,76.9,0.0,-0.17,75.33,-1.91
1538,0.025999999,-11.81,2.07,-7.9,0.48,74.15,0.0,-0.19,75.39,-1.82
1539,0.027999999,-11.6,2.04,-8.25,0.29,75.83,0.0,-0.2,75.31,-1.76
1540,0.027,-11.7,2.07,-8.31,0.49,76.33,0.0,-0.17,75.39,-1.78
1541,0.027,-11.81,2.28,-8.15,1.69,75.51,0.0,-0.15,75.5,-1.75
1542,0.027,-11.64,2.27,-8.19,1.69,75.46,0.0,-0.13,75.58,-1.68
1543,0.027,-11.57,2.13,-8.2,0.84,75.51,0.0,-0.15,75.64,-1.64
1544,0.027,-11.65,2.22,-8.27,1.4,75.97,0.0,-0.12,75.82,-1.65
1545,0.027,-11.69,2.21,-8.11,1.3,75.11,0.0,-0.16,76.01,-1.56
1546,0.027999999,-11.55,2.08,-8.26,0.54,75.86,0.0,-0.18,76.06,-1.5
1547,0.025999999,-11.63,2.08,-8.48,0.54,77.24,0.0,-0.17,76.13,-1.48
1548,0.027,-11.68,2.26,-8.44,1.66,76.95,0.0,-0.15,76.29,-1.53
1549,0.027,-11.77,2.16,-8.05,1.0,74.93,0.0,-0.11,76.36,-1.43
1550,0.027,-11.66,2.14,-8.21,0.89,75.67,0.0,-0.06,76.39,-1.33
1551,0.027999999,-11.58,2.19,-8.79,1.23,78.95,0.0,-0.04,76.68,-1.32
1552,0.025999999,-11.71,2.13,-8.45,0.88,77.16,0.0,-0.07,76.96,-1.31
1553,0.027,-11.83,2.38,-8.33,2.29,76.43,0.0,-0.03,77.16,-1.23
1554,0.027999999,-11.66,2.33,-8.78,2.08,78.89,0.0,-0.08,77.5,-1.13
1555,0.025999999,-11.69,2.2,-8.45,1.27,77.1,0.0,-0.18,77.81,-1.04
1556,0.027999999,-11.72,2.24,-8.48,1.48,77.28,0.0,-0.2,78.2,-0.98
1557,0.025999999,-11.67,2.28,-8.71,1.74,78.56,0.0,-0.15,78.63,-0.84
1558,0.027,-11.78,2.37,-8.56,2.3,77.72,0.0,-0.1,78.89,-0.72
1559,0.027999999,-11.7,2.05,-8.5,0.39,77.43,0.0,-0.13,79.32,-0.54
1560,0.025999999,-11.83,2.54,-8.84,3.3,79.08,0.0,0.08,79.35,-0.44
1561,0.027,-11.56,2.31,-9.2,1.97,81.29,0.0,0.14,79.59,-0.35
1562,0.027999999,-11.77,2.29,-8.66,1.79,78.36,0.0,0.21,79.68,-0.26
1563,0.025999999,-11.7,2.25,-8.78,1.61,79.0,0.0,0.31,79.51,-0.28
1564,0.027,-11.72,2.26,-8.67,1.61,78.35,0.0,0.45,79.12,-0.31
1565,0.027,-11.73,2.35,-8.69,2.19,78.41,0.0,0.62,78.65,-0.4
1566,0.025999999,-11.82,2.49,-8.61,3.0,77.87,0.0,0.79,78.0,-0.49
1567,0.027,-11.7,2.33,-8.78,2.07,78.93,0.0,0.77,77.05,-0.55
1568,0.027,-11.71,2.3,-8.36,1.88,76.53,0.0,0.75,76.21,-0.67
1569,0.027,-11.81,2.52,-8.16,3.12,75.32,0.0,0.73,75.38,-0.84
1570,0.027,-11.76,2.57,-8.35,3.47,76.25,0.0,0.95,74.29,-0.91
1571,0.025999999,-11.49,2.2,-7.97,1.29,74.01,0.0,0.91,73.46,-1.01
1572,0.027,-11.71,2.43,-7.61,2.58,72.18,0.0,0.74,72.54,-1.12
1573,0.027,-11.61,2.2,-7.25,1.26,70.14,0.0,0.64,71.45,-1.07
1574,0.025999999,-11.26,2.12,-7.27,0.78,69.54,0.0,0.53,70.47,-1.18
1575,0.027999999,-11.63,2.32,-7.38,1.95,70.82,0.0,0.4,69.21,-1.19
1576,0.025999999,-11.38,1.98,-7.29,-0.04,69.95,0.0,0.23,68.51,-1.22
1577,0.027,-11.38,2.14,-7.13,0.91,69.01,0.0,0.13,67.97,-1.36
1578,0.027,-11.41,2.28,-6.6,1.67,66.18,0.0,-0.03,66.88,-1.64
1579,0.027,-11.41,2.15,-6.35,0.92,64.89,0.0,-0.19,65.81,-1.71
1580,0.027,-11.32,1.97,-6.18,-0.1,63.79,0.0,-0.26,64.99,-1.7
1581,0.027999999,-11.45,2.25,-6.29,1.51,64.62,0.0,-0.34,63.77,-1.6
1582,0.025999999,-11.21,1.98,-6.09,-0.07,63.02,0.0,-0.35,63.08,-1.52
1583,0.027999999,-11.02,2.18,-5.87,1.13,61.37,0.0,-0.35,61.85,-1.32
1584,0.025999999,-11.21,2.35,-5.34,2.01,59.23,0.0,-0.51,60.02,-1.0
1585,0.027999999,-10.9,2.19,-5.54,1.18,59.38,0.0,-0.33,58.88,-0.68
1586,0.027,-10.98,2.39,-5.69,2.33,60.3,0.0,-0.09,57.88,-0.13
1587,0.025999999,-10.65,2.39,-4.97,2.32,55.8,0.0,0.23,57.08,0.3
1588,0.027,-10.83,2.52,-5.57,3.13,59.17,0.0,0.37,56.29,0.61
1589,0.027,-10.77,2.56,-5.08,3.28,56.58,0.0,0.54,55.82,0.94
1590,0.025,-10.53,2.31,-4.63,1.81,53.79,0.0,0.74,55.52,1.2
1591,0.027,-10.6,2.82,-4.64,4.71,53.83,0.0,0.92,54.83,1.4
1592,0.025999999,-10.74,2.69,-5.27,4.06,57.35,0.0,1.31,54.47,1.96
1593,0.025999999,-10.45,2.63,-4.36,3.6,52.2,0.0,1.05,53.64,2.36
1594,0.027,-10.41,2.92,-4.73,5.38,53.54,0.0,0.93,53.14,2.4
1595,0.025999999,-10.49,2.73,-4.24,4.14,51.74,0.0,0.91,53.03,2.31
1596,0.025999999,-9.39,1.73,-3.97,-1.54,46.62,0.0,0.07,52.31,1.79
1597,0.027,-10.06,2.33,-5.0,2.06,53.93,0.0,-0.43,51.19,1.77
1598,0.025999999,-9.95,2.32,-3.56,1.85,47.08,0.0,-1.13,50.04,1.79
1599,0.025999999,-10.19,2.79,-3.76,4.43,48.65,0.0,-1.89,48.59,2.02
1600,0.025999999,-9.9,2.41,-3.08,2.29,44.99,0.0,-2.88,46.79,2.48
1601,0.025999999,-9.72,2.03,-3.62,0.22,46.46,0.0,-3.77,45.46,2.79
1602,0.025999999,-9.65,2.41,-3.36,2.36,45.12,0.0,-4.53,44.19,2.99
1603,0.025999999,-9.55,2.33,-2.87,1.87,42.84,0.0,-5.08,42.99,3.25
1604,0.025999999,-8.26,1.34,-3.54,-4.09,39.67,0.0,-5.03,42.15,4.02
1605,0.025999999,-8.81,1.91,-2.85,-0.45,39.67,0.0,-4.92,41.23,4.43
1606,0.025999999,-9.48,2.68,-3.24,3.88,43.89,0.0,-4.66,40.35,4.68
1607,0.027,-8.87,2.27,-2.76,1.6,39.65,0.0,-4.59,39.61,5.02
1608,0.025,-8.72,2.25,-2.54,1.46,38.21,0.0,-4.22,39.08,5.1
1609,0.027,-9.13,2.49,-2.54,2.73,39.9,0.0,-3.88,38.58,5.28
1610,0.025,-8.82,2.4,-2.42,2.25,38.19,0.0,-3.6,38.13,5.19
1611,0.025999999,-9.51,3.22,-2.28,6.44,40.3,0.0,-3.43,37.64,5.42
1612,0.027,-8.89,2.57,-1.81,3.05,36.45,0.0,-3.15,36.93,5.73
1613,0.025,-8.44,1.94,-2.88,-0.27,38.15,0.0,-3.31,36.06,6.04
1614,0.027,-8.45,2.27,-2.3,1.57,36.16,0.0,-3.19,35.46,5.89
1615,0.025999999,-8.76,3.21,-1.79,6.41,35.67,0.0,-2.82,35.08,5.97
1616,0.025999999,-8.65,2.77,-2.12,4.26,36.37,0.0,-2.4,34.95,6.56
1617,0.025999999,-8.5,2.92,-3.96,5.91,42.41,0.0,-2.6,33.51,6.27
1618,0.025,-8.03,2.25,-1.85,1.45,32.82,0.0,-2.48,32.91,6.11
1619,0.027,-8.39,2.71,-1.53,3.8,33.46,0.0,-2.14,32.32,6.27
1620,0.025999999,-8.35,2.79,-1.36,4.2,32.75,0.0,-1.58,31.62,6.79
1621,0.025999999,-7.12,1.62,-2.54,-2.25,30.4,0.0,-1.63,30.94,6.97
1622,0.025999999,-8.01,2.99,-1.78,5.49,32.39,0.0,-1.3,30.77,6.97
1623,0.025999999,-8.18,3.26,-1.5,6.74,32.24,0.0,-0.86,30.53,7.28
1624,0.025999999,-7.56,2.63,-1.52,3.55,29.62,0.0,-0.45,29.97,7.59
1625,0.025999999,-7.48,2.74,-2.57,4.52,32.32,0.0,-0.26,29.65,7.73
1626,0.025999999,-7.6,3.01,-0.71,5.21,27.69,0.0,-0.07,29.28,7.78
1627,0.025999999,-7.87,3.41,-1.11,7.41,29.78,0.0,0.36,29.12,7.99
1628,0.025,-7.39,2.2,-1.44,1.19,28.65,0.0,0.35,28.84,8.14
1629,0.025999999,-7.61,2.82,-1.53,4.58,29.85,0.0,0.17,28.54,8.18
1630,0.027,-7.32,2.57,-0.85,3.07,26.81,0.0,-0.0,27.87,8.42
1631,0.025,-7.49,2.78,-1.11,4.21,28.18,0.0,-0.2,27.41,8.51
1632,0.025999999,-6.67,2.09,-0.91,0.57,23.82,0.0,-0.41,26.96,8.28
1633,0.027,-7.43,2.76,-0.77,3.99,27.08,0.0,-0.59,26.5,8.17
1634,0.025,-7.46,3.01,-1.47,5.59,28.92,0.0,-0.43,26.13,8.13
1635,0.027,-7.11,2.79,-0.65,4.19,25.31,0.0,-0.42,25.69,8.22
1636,0.025,-6.79,2.37,-1.31,2.11,25.35,0.0,-1.05,24.81,8.03
1637,0.025999999,-7.07,2.58,-0.38,3.01,24.59,0.0,-1.4,23.68,8.08
1638,0.027,-7.03,2.59,-0.45,3.08,24.52,0.0,-1.75,22.41,8.35
1639,0.025,-6.28,2.07,-0.57,0.43,21.17,0.0,-2.1,21.12,8.23
1640,0.027,-6.0,2.4,-0.27,2.15,19.22,0.0,-2.47,19.95,8.01
1641,0.025999999,-6.0,2.11,-0.22,0.61,19.17,0.0,-3.14,18.5,7.98
1642,0.025999999,-5.74,1.82,-0.55,-0.91,18.4,0.0,-3.44,17.29,7.76
1643,0.027,-5.73,2.0,-0.12,0.04,17.65,0.0,-3.7,16.19,7.63
1644,0.025999999,-5.43,1.88,-0.72,-0.6,17.09,0.0,-4.1,14.8,7.53
1645,0.027,-5.24,1.99,0.14,0.0,14.85,0.0,-4.55,13.36,7.6
1646,0.025,-4.84,1.38,-0.56,-3.4,13.68,0.0,-4.93,12.1,7.61
1647,0.027,-4.64,1.29,0.07,-3.7,11.84,0.0,-5.47,10.69,7.58
1648,0.027,-4.65,1.61,0.26,-1.97,11.74,0.0,-6.05,9.36,7.51
1649,0.025,-4.36,1.41,-0.2,-3.11,10.65,0.0,-6.55,8.31,7.41
1650,0.027,-4.09,1.22,0.58,-3.9,8.57,0.0,-6.87,7.35,7.2
1651,0.025999999,-4.04,1.38,0.26,-3.19,8.6,0.0,-7.31,5.59,7.19
1652,0.025,-3.61,1.0,-0.24,-5.43,6.62,0.0,-7.74,4.63,7.29
1653,0.025999999,-3.38,0.78,0.26,-6.37,5.11,0.0,-8.16,3.81,7.37
1654,0.025,-3.26,0.82,0.36,-6.08,4.47,0.0,-8.4,2.92,7.43
1655,0.027,-3.14,0.85,0.11,-6.07,3.91,0.0,-8.78,1.83,7.58
1656,0.025999999,-3.02,0.69,0.67,-6.58,3.12,0.0,-9.14,0.67,7.81
1657,0.025,-2.43,0.46,0.25,-8.07,0.13,0.0,-9.61,-0.64,8.03
1658,0.027,-2.43,0.49,-0.11,-8.14,0.13,0.0,-10.09,-2.26,8.28
1659,0.025,-2.16,0.52,0.41,-7.61,-1.26,0.0,-10.52,-3.36,8.5
1660,0.027,-1.75,0.04,0.34,-10.11,-3.37,0.0,-11.25,-4.69,8.79
1661,0.027,-1.74,0.2,0.03,-9.55,-3.52,0.0,-12.18,-5.88,9.12
1662,0.025999999,-1.78,0.21,-0.16,-9.66,-3.37,0.0,-12.97,-7.01,9.55
1663,0.027999999,-1.3,0.23,-0.09,-9.49,-5.93,0.0,-13.12,-7.95,9.91
1664,0.027,-1.06,-0.03,-0.93,-11.7,-7.79,0.0,-14.01,-8.98,10.23
1665,0.027,-1.01,-0.34,0.46,-11.82,-7.03,0.0,-14.73,-9.97,10.55
1666,0.027999999,-0.76,-0.56,0.08,-13.3,-8.54,0.0,-15.17,-10.73,10.78
1667,0.027,-0.83,-0.61,0.11,-13.55,-8.14,0.0,-15.38,-11.23,10.85
1668,0.027999999,-0.77,-0.6,-0.17,-13.84,-8.68,0.0,-15.88,-12.19,11.06
1669,0.028999997,-0.36,-0.85,0.23,-14.47,-10.35,0.0,-16.6,-13.32,11.14
1670,0.027999999,-0.29,-0.88,-1.12,-16.5,-12.1,0.0,-17.2,-14.25,11.19
1671,0.028999997,-0.01,-1.13,-0.23,-16.4,-12.48,0.0,-17.77,-15.47,11.29
1672,0.028999997,0.23,-0.97,0.46,-14.61,-13.0,0.0,-18.05,-16.15,11.25
1673,0.027,-0.03,-1.14,-0.35,-16.63,-12.5,0.0,-18.37,-16.84,11.28
1674,0.028999997,0.16,-1.01,0.87,-14.37,-12.25,0.0,-18.19,-17.9,11.15
1675,0.027999999,0.37,-1.06,-0.22,-15.87,-14.42,0.0,-18.46,-18.4,11.16
1676,0.027999999,0.56,-1.28,-0.17,-16.83,-15.19,0.0,-18.59,-18.94,11.18
1677,0.028999997,0.59,-0.72,-1.33,-15.61,-17.25,0.0,-19.02,-20.89,11.35
1678,0.028999997,0.8,-1.63,-1.0,-19.74,-17.36,0.0,-19.51,-21.66,11.21
1679,0.027999999,1.02,-1.63,-0.59,-18.96,-17.88,0.0,-19.71,-22.51,11.09
1680,0.027999999,1.19,-1.6,-1.15,-19.6,-19.64,0.0,-19.43,-22.77,10.88
1681,0.028999997,1.01,-1.26,-1.18,-18.03,-18.96,0.0,-19.44,-23.35,10.79
1682,0.027999999,1.4,-1.42,-1.33,-18.83,-21.14,0.0,-19.45,-23.69,10.71
1683,0.028999997,1.6,-1.29,-0.27,-16.55,-20.31,0.0,-19.09,-23.71,10.53
1684,0.028999997,1.08,-0.7,-1.22,-15.07,-19.71,0.0,-19.27,-24.71,10.44
1685,0.027999999,1.82,-1.44,-1.09,-18.31,-22.76,0.0,-20.06,-25.73,10.5
1686,0.028999997,2.0,-1.49,-0.72,-17.84,-22.86,0.0,-20.48,-26.54,10.54
1687,0.028999997,1.91,-1.62,-1.39,-19.57,-23.61,0.0,-21.03,-27.54,10.4
1688,0.028999997,2.07,-1.16,-2.0,-18.07,-26.12,0.0,-21.57,-29.05,10.56
1689,0.027999999,2.51,-1.78,-1.52,-20.09,-26.63,0.0,-21.85,-29.64,10.43
1690,0.028999997,2.29,-1.77,-1.31,-19.9,-25.18,0.0,-22.04,-30.75,10.33
1691,0.028999997,2.84,-2.17,-2.9,-24.12,-31.02,0.0,-22.23,-31.64,10.11
1692,0.027999999,2.73,-1.72,-0.99,-18.87,-26.54,0.0,-22.02,-32.75,9.82
1693,0.027999999,3.09,-1.76,-1.77,-19.85,-29.87,0.0,-21.92,-33.43,9.62
1694,0.027,3.3,-2.02,-2.27,-21.73,-31.74,0.0,-21.97,-34.79,9.41
1695,0.028999997,3.28,-1.82,-2.48,-21.05,-32.46,0.0,-22.02,-35.69,9.16
1696,0.027999999,3.83,-1.95,-1.92,-20.28,-33.28,0.0,-22.13,-36.59,9.04
1697,0.027999999,3.62,-1.55,-2.12,-18.81,-33.33,0.0,-21.98,-37.72,8.9
1698,0.027999999,3.87,-1.72,-2.62,-20.11,-35.56,0.0,-21.89,-38.75,8.8
1699,0.028999997,4.03,-2.05,-2.86,-21.91,-36.47,0.0,-21.93,-39.43,8.69
1700,0.027,4.07,-1.73,-2.79,-20.18,-36.9,0.0,-22.26,-40.04,8.62
1701,0.027999999,4.49,-1.93,-2.76,-20.6,-38.28,0.0,-22.52,-40.81,8.41
1702,0.028999997,4.09,-1.86,-4.58,-23.57,-42.33,0.0,-23.75,-42.55,7.8
1703,0.027,4.65,-1.51,-4.37,-20.45,-44.76,0.0,-23.9,-44.01,7.5
1704,0.028999997,4.94,-1.82,-3.48,-20.45,-42.37,0.0,-23.9,-45.09,7.29
1705,0.027999999,4.92,-1.72,-3.82,-20.41,-43.58,0.0,-23.68,-45.56,6.94
1706,0.027999999,4.88,-1.81,-4.14,-21.35,-44.32,0.0,-23.66,-46.5,6.76
1707,0.027999999,5.02,-1.86,-4.34,-21.65,-45.38,0.0,-23.97,-47.18,6.63
1708,0.027999999,5.26,-1.66,-3.63,-19.47,-44.35,0.0,-24.18,-47.72,6.31
1709,0.027999999,5.57,-1.76,-3.93,-19.89,-46.27,0.0,-24.44,-48.62,5.83
1710,0.027999999,5.09,-1.75,-4.78,-21.55,-47.4,0.0,-24.64,-49.63,5.62
1711,0.028999997,5.81,-1.88,-4.49,-20.72,-48.72,0.0,-24.78,-50.25,5.43
1712,0.027,5.38,-1.59,-4.01,-19.37,-46.17,0.0,-24.86,-51.25,5.08
1713,0.028999997,5.66,-1.64,-5.28,-20.62,-51.49,0.0,-24.96,-52.58,4.71
1714,0.027999999,6.03,-1.77,-4.93,-20.33,-51.21,0.0,-25.1,-53.48,4.5
1715,0.027,5.94,-1.55,-4.88,-19.31,-51.23,0.0,-25.11,-54.21,4.28
1716,0.028999997,6.06,-1.75,-5.5,-20.76,-53.32,0.0,-25.4,-55.69,3.74
1717,0.027999999,5.93,-1.59,-6.05,-20.7,-55.32,0.0,-25.56,-56.85,3.48
1718,0.027999999,6.38,-1.7,-5.92,-20.37,-55.96,0.0,-25.68,-57.66,3.25
1719,0.027999999,6.37,-1.54,-5.59,-19.26,-55.21,0.0,-25.49,-58.34,2.97
1720,0.027999999,6.19,-1.54,-6.25,-20.17,-56.99,0.0,-25.42,-59.45,2.75
1721,0.027999999,6.28,-1.6,-6.1,-20.18,-56.56,0.0,-25.68,-60.59,2.53
1722,0.027999999,6.62,-1.51,-6.58,-19.52,-59.56,0.0,-26.08,-61.86,2.27
1723,0.028999997,6.82,-1.42,-6.94,-18.98,-61.62,0.0,-26.1,-62.89,1.98
1724,0.027,6.56,-1.52,-6.97,-19.94,-60.73,0.0,-26.05,-63.34,1.83
1725,0.028999997,6.75,-1.46,-6.87,-19.28,-61.05,0.0,-26.2,-63.92,1.65
1726,0.027999999,6.74,-1.47,-7.13,-19.49,-61.92,0.0,-26.08,-64.7,1.48
1727,0.027,6.91,-1.44,-7.5,-19.29,-63.7,0.0,-25.96,-65.34,1.27
1728,0.028999997,6.46,-1.23,-7.53,-18.98,-63.45,0.0,-25.77,-65.71,1.07
1729,0.027999999,6.77,-1.31,-6.95,-18.49,-61.89,0.0,-25.7,-66.48,1.03
1730,0.027999999,7.13,-1.36,-7.75,-18.63,-65.34,0.0,-25.89,-67.51,0.68
1731,0.027999999,7.01,-1.23,-8.06,-18.28,-66.56,0.0,-25.89,-68.33,0.43
1732,0.028999997,7.05,-1.19,-8.09,-18.01,-66.89,0.0,-25.74,-69.16,0.25
1733,0.027,6.79,-1.27,-8.17,-18.9,-66.27,0.0,-25.54,-69.59,0.07
1734,0.027999999,6.88,-1.18,-8.34,-18.34,-67.36,0.0,-25.44,-70.41,-0.02
1735,0.027999999,7.2,-1.25,-8.56,-18.28,-68.35,0.0,-25.37,-70.97,-0.13
1736,0.028999997,7.05,-1.24,-8.79,-18.55,-68.7,0.0,-25.44,-71.53,-0.32
1737,0.028999997,7.17,-1.14,-8.63,-17.77,-68.97,0.0,-25.43,-72.14,-0.48
1738,0.028999997,6.97,-1.1,-8.8,-17.92,-69.22,0.0,-25.4,-72.92,-0.68
1739,0.027999999,7.17,-1.12,-8.83,-17.71,-69.61,0.0,-25.31,-73.64,-0.86
1740,0.028999997,7.28,-1.15,-9.22,-17.79,-70.59,0.0,-25.17,-74.41,-0.99
1741,0.028999997,7.23,-1.05,-9.53,-17.42,-71.57,0.0,-25.08,-75.2,-1.15
1742,0.027999999,7.13,-1.08,-9.72,-17.8,-71.51,0.0,-25.14,-75.92,-1.48
1743,0.028999997,6.94,-0.89,-9.87,-17.06,-72.44,0.0,-25.13,-76.36,-1.68
1744,0.028999997,7.1,-1.01,-9.78,-17.45,-71.94,0.0,-25.1,-76.79,-1.77
1745,0.027999999,7.58,-0.91,-10.01,-16.17,-73.53,0.0,-25.05,-77.48,-1.97
1746,0.028999997,7.39,-0.88,-10.15,-16.29,-73.53,0.0,-24.93,-77.85,-2.33
1747,0.028999997,7.02,-0.66,-10.17,-15.68,-74.14,0.0,-24.76,-78.37,-2.56
1748,0.027999999,7.39,-0.68,-10.66,-15.22,-74.77,0.0,-24.65,-78.92,-2.78
1749,0.028999997,7.18,-0.73,-10.75,-15.82,-74.15,0.0,-24.47,-79.41,-3.09
1750,0.029999997,7.28,-0.62,-11.0,-15.09,-74.7,0.0,-24.3,-79.76,-3.27
1751,0.027999999,7.28,-0.57,-10.73,-14.78,-75.19,0.0,-24.02,-80.09,-3.43
1752,0.028999997,7.22,-0.48,-10.84,-14.37,-75.54,0.0,-23.8,-80.62,-3.69
1753,0.028999997,7.14,-0.56,-11.45,-14.9,-74.2,0.0,-23.66,-80.89,-3.94
1754,0.027999999,7.27,-0.51,-11.05,-14.49,-75.24,0.0,-23.48,-81.03,-4.07
1755,0.028999997,7.4,-0.46,-11.16,-13.99,-75.6,0.0,-23.29,-81.47,-4.19
1756,0.029999997,7.03,-0.42,-11.6,-14.25,-74.46,0.0,-23.13,-81.7,-4.49
1757,0.027999999,7.17,-0.35,-11.55,-13.65,-75.16,0.0,-22.96,-82.21,-4.64
1758,0.028999997,7.35,-0.37,-11.69,-13.52,-74.99,0.0,-22.99,-83.13,-4.98
1759,0.028999997,7.21,-0.24,-11.9,-12.91,-74.9,0.0,-22.96,-83.65,-5.53
1760,0.027999999,6.91,-0.15,-12.15,-12.77,-74.06,0.0,-22.8,-84.06,-5.84
1761,0.029999997,7.23,-0.13,-12.28,-12.22,-74.2,0.0,-22.55,-84.18,-6.06
1762,0.028999997,7.0,0.08,-12.04,-11.35,-75.61,0.0,-22.28,-84.46,-6.33
1763,0.027999999,7.14,-0.05,-12.43,-11.85,-73.85,0.0,-22.05,-84.66,-6.66
1764,0.028999997,6.97,0.12,-12.42,-11.06,-74.32,0.0,-21.76,-84.89,-6.94
1765,0.028999997,6.79,0.23,-12.91,-10.5,-72.36,0.0,-21.47,-84.91,-7.09
1766,0.027999999,7.14,0.13,-12.61,-10.76,-73.88,0.0,-21.14,-85.09,-7.31
1767,0.028999997,7.15,0.32,-12.82,-9.65,-73.64,0.0,-20.84,-85.91,-7.74
1768,0.027999999,6.84,0.23,-13.39,-10.28,-70.23,0.0,-20.58,-85.97,-8.04
1769,0.027999999,7.0,0.43,-13.11,-9.12,-72.39,0.0,-20.18,-86.17,-8.28
1770,0.028999997,6.92,0.28,-12.93,-10.07,-72.61,0.0,-19.84,-86.18,-8.51
1771,0.028999997,6.83,0.5,-13.45,-8.77,-70.63,0.0,-19.6,-86.35,-8.82
1772,0.027,6.75,0.55,-12.8,-8.69,-73.8,0.0,-19.35,-86.66,-9.11
1773,0.028999997,6.85,0.76,-13.92,-7.13,-68.92,0.0,-18.99,-87.03,-9.53
1774,0.028999997,6.44,0.74,-14.12,-7.47,-66.95,0.0,-18.65,-86.19,-9.65
1775,0.027999999,6.65,0.73,-13.92,-7.43,-68.44,0.0,-18.16,-85.16,-9.54
1776,0.027999999,6.5,0.61,-13.6,-8.32,-69.47,0.0,-17.72,-84.37,-9.47
1777,0.028999997,6.76,0.62,-13.61,-8.08,-70.0,0.0,-17.34,-84.07,-9.45
1778,0.027999999,6.83,0.68,-13.71,-7.67,-69.73,0.0,-16.96,-83.82,-9.48
1779,0.027999999,6.62,0.68,-13.88,-7.77,-68.46,0.0,-16.63,-83.27,-9.48
1780,0.028999997,6.62,0.82,-13.36,-7.05,-71.44,0.0,-16.22,-83.4,-9.49
1781,0.027999999,6.71,0.75,-14.2,-7.19,-67.19,0.0,-15.85,-83.63,-9.55
1782,0.027999999,6.49,0.75,-14.35,-7.29,-65.92,0.0,-15.54,-83.33,-9.63
1783,0.028999997,6.57,0.77,-14.27,-7.15,-66.51,0.0,-15.18,-83.26,-9.62
1784,0.027999999,6.44,0.7,-14.5,-7.56,-64.91,0.0,-14.78,-82.93,-9.6
1785,0.027999999,6.31,0.68,-14.27,-7.9,-65.77,0.0,-14.39,-82.98,-9.58
1786,0.028999997,6.35,0.56,-14.86,-8.37,-62.65,0.0,-14.04,-83.12,-9.55
1787,0.027999999,6.35,0.7,-14.72,-7.58,-63.58,0.0,-13.79,-82.59,-9.56
1788,0.028999997,6.24,0.68,-14.74,-7.8,-63.17,0.0,-13.51,-81.97,-9.45
1789,0.028999997,6.53,0.79,-14.77,-6.91,-63.94,0.0,-13.23,-81.61,-9.39
1790,0.027999999,6.14,0.72,-14.46,-7.71,-64.37,0.0,-12.88,-81.15,-9.32
1791,0.028999997,6.21,0.63,-14.56,-8.16,-63.89,0.0,-12.57,-81.05,-9.28
1792,0.028999997,6.19,0.62,-14.91,-8.1,-62.06,0.0,-12.29,-80.84,-9.25
1793,0.027999999,5.82,0.56,-14.65,-8.85,-62.24,0.0,-12.09,-80.32,-9.2
1794,0.028999997,6.02,0.65,-14.88,-8.07,-61.78,0.0,-11.87,-79.59,-9.16
1795,0.028999997,6.0,0.68,-15.0,-7.83,-61.16,0.0,-11.53,-78.99,-9.08
1796,0.027999999,6.09,0.58,-15.04,-8.37,-61.1,0.0,-11.29,-78.22,-8.98
1797,0.027999999,6.26,0.65,-14.84,-7.91,-62.64,0.0,-11.13,-77.14,-8.94
1798,0.028999997,6.12,0.58,-14.94,-8.34,-61.67,0.0,-10.99,-75.83,-8.84
1799,0.027999999,6.31,0.47,-14.96,-8.82,-61.91,0.0,-10.77,-74.5,-8.67
1800,0.028999997,6.24,0.46,-14.77,-9.06,-62.63,0.0,-10.49,-72.92,-8.35
1801,0.028999997,6.28,0.43,-14.39,-9.35,-64.56,0.0,-10.28,-70.94,-8.02
1802,0.027999999,6.45,0.38,-14.37,-9.5,-65.0,0.0,-10.2,-69.31,-7.86
1803,0.028999997,6.5,0.38,-14.17,-9.52,-66.08,0.0,-10.2,-67.03,-7.65
1804,0.027999999,6.72,0.57,-13.79,-8.35,-68.91,0.0,-9.79,-65.83,-7.17
1805,0.027999999,6.84,0.27,-13.69,-9.99,-68.9,0.0,-9.29,-63.81,-6.57
1806,0.027999999,6.82,-0.04,-13.06,-12.01,-70.76,0.0,-8.89,-61.08,-6.03
1807,0.028999997,7.06,-0.21,-12.1,-12.92,-74.2,0.0,-8.75,-59.4,-5.51
1808,0.027999999,6.99,-0.33,-12.48,-13.6,-72.27,0.0,-8.68,-58.58,-5.19
1809,0.028999997,7.1,-0.16,-11.83,-12.66,-75.28,0.0,-8.58,-57.67,-4.92
1810,0.028999997,7.12,-0.08,-12.12,-12.1,-74.82,0.0,-8.42,-56.32,-4.61
1811,0.027999999,7.27,-0.14,-10.92,-12.42,-77.41,0.0,-8.01,-54.89,-4.3
1812,0.028999997,7.23,-0.4,-10.65,-13.9,-76.09,0.0,-7.64,-53.52,-4.12
1813,0.028999997,7.28,-0.31,-10.26,-13.35,-76.53,0.0,-7.46,-52.77,-4.05
1814,0.027,7.5,-0.39,-10.08,-13.47,-76.24,0.0,-7.28,-51.78,-4.06
1815,0.028999997,7.31,-0.46,-9.66,-14.11,-74.93,0.0,-7.06,-50.32,-4.19
1816,0.028999997,7.42,-0.38,-9.32,-13.43,-74.77,0.0,-6.8,-49.02,-4.13
1817,0.027999999,7.52,-0.45,-8.91,-13.63,-73.44,0.0,-6.54,-47.97,-3.96
1818,0.027999999,7.25,-0.38,-8.59,-13.52,-72.29,0.0,-6.28,-46.97,-3.75
1819,0.028999997,7.2,-0.23,-8.0,-12.59,-70.53,0.0,-5.94,-46.05,-3.55
1820,0.027999999,7.19,-0.12,-7.56,-11.84,-69.06,0.0,-5.62,-45.42,-3.46
1821,0.027999999,7.22,-0.29,-7.44,-12.67,-68.13,0.0,-5.43,-45.05,-3.24
1822,0.028999997,7.13,-0.28,-7.75,-12.86,-69.2,0.0,-5.1,-44.59,-3.03
1823,0.027999999,6.94,-0.43,-7.09,-13.63,-65.61,0.0,-4.7,-43.81,-2.87
1824,0.027999999,7.02,-0.28,-6.69,-12.55,-64.52,0.0,-4.36,-43.1,-2.79
1825,0.028999997,6.84,-0.31,-6.16,-12.63,-61.72,0.0,-3.99,-42.14,-2.8
1826,0.027999999,6.57,-0.11,-6.3,-11.93,-62.06,0.0,-3.82,-41.74,-2.84
1827,0.028999997,6.8,-0.11,-5.65,-11.36,-59.83,0.0,-3.4,-40.67,-2.57
1828,0.027999999,6.42,-0.13,-5.43,-11.73,-57.8,0.0,-3.09,-40.01,-2.37
1829,0.027999999,6.36,-0.21,-5.62,-12.34,-58.28,0.0,-2.9,-39.63,-2.33
1830,0.028999997,6.51,-0.11,-4.74,-11.16,-55.23,0.0,-2.61,-39.02,-2.52
1831,0.027999999,6.31,-0.11,-4.89,-11.43,-55.19,0.0,-2.59,-38.7,-2.82
1832,0.027999999,6.24,0.07,-5.22,-10.68,-56.7,0.0,-2.67,-38.21,-3.06
1833,0.027999999,6.07,-0.03,-5.01,-11.28,-55.08,0.0,-2.86,-37.76,-3.22
1834,0.028999997,5.98,0.27,-3.93,-9.14,-50.71,0.0,-3.15,-36.54,-3.43
1835,0.027,5.83,0.25,-4.27,-9.54,-51.56,0.0,-2.86,-36.0,-3.82
1836,0.027999999,5.78,0.24,-3.65,-9.28,-48.93,0.0,-2.69,-35.29,-3.96
1837,0.027999999,5.62,0.35,-4.01,-8.97,-49.87,0.0,-2.42,-34.65,-4.3
1838,0.027999999,6.02,0.37,-3.12,-8.19,-47.85,0.0,-2.72,-33.3,-4.51
1839,0.027999999,5.29,0.51,-3.8,-8.21,-47.97,0.0,-2.11,-33.28,-4.82
1840,0.027999999,5.08,1.03,-3.88,-5.47,-47.9,0.0,-1.86,-32.7,-4.9
1841,0.027,5.36,0.77,-2.86,-6.36,-44.85,0.0,-1.21,-32.67,-5.14
1842,0.027999999,5.04,0.73,-4.01,-7.22,-48.09,0.0,-1.31,-31.57,-4.85
1843,0.027999999,5.01,1.02,-2.65,-5.1,-42.88,0.0,-1.28,-31.4,-4.94
1844,0.027999999,5.03,0.93,-2.22,-5.39,-41.46,0.0,-1.37,-31.32,-4.95
1845,0.027999999,4.72,0.65,-2.63,-7.15,-41.5,0.0,-1.49,-30.98,-4.91
1846,0.027999999,4.67,0.6,-2.73,-7.49,-41.64,0.0,-1.72,-30.66,-4.87
1847,0.027,4.52,1.06,-2.19,-4.87,-39.4,0.0,-2.13,-29.76,-4.79
1848,0.027999999,4.68,1.05,-2.2,-4.88,-40.06,0.0,-2.31,-29.48,-4.77
1849,0.027,4.7,0.85,-0.32,-5.21,-34.56,0.0,-2.72,-28.84,-4.67
1850,0.028999997,4.03,0.83,-1.95,-6.15,-36.51,0.0,-3.16,-28.74,-4.53
1851,0.027999999,4.42,0.33,-2.09,-8.65,-38.31,0.0,-3.79,-28.56,-4.52
1852,0.027,4.0,0.83,-2.7,-6.54,-38.87,0.0,-3.82,-28.33,-4.39
1853,0.027999999,4.01,0.77,-1.78,-6.41,-35.85,0.0,-3.91,-28.11,-4.29
1854,0.027999999,4.05,0.82,-1.61,-6.02,-35.54,0.0,-3.84,-27.83,-4.21
1855,0.027999999,4.84,0.54,2.69,-5.48,-28.5,0.0,-3.95,-26.99,-4.09
1856,0.027,3.81,0.84,-2.42,-6.41,-37.04,0.0,-3.96,-26.95,-4.02
1857,0.028999997,3.9,0.49,-1.23,-7.6,-33.7,0.0,-4.04,-27.15,-4.03
1858,0.027,3.45,0.78,-1.6,-6.45,-32.9,0.0,-3.96,-27.03,-4.07
1859,0.027999999,3.35,0.86,-1.83,-6.17,-33.12,0.0,-4.06,-27.06,-3.95
1860,0.027999999,3.77,0.59,-1.37,-7.19,-33.57,0.0,-4.17,-27.11,-3.89
1861,0.027,3.5,0.6,-1.36,-7.24,-32.38,0.0,-4.19,-27.12,-3.95
1862,0.027999999,3.39,0.78,-1.58,-6.47,-32.56,0.0,-4.32,-27.27,-3.88
1863,0.028999997,3.5,0.63,-1.5,-7.14,-32.78,0.0,-4.45,-27.29,-3.88
1864,0.027,3.73,0.58,-1.07,-7.1,-32.57,0.0,-4.45,-27.31,-3.91
1865,0.027999999,3.39,0.89,-1.54,-5.84,-32.52,0.0,-4.37,-27.47,-3.89
1866,0.027999999,3.35,0.95,-1.3,-5.45,-31.68,0.0,-4.48,-27.72,-3.7
1867,0.027,3.5,0.96,-1.2,-5.31,-32.08,0.0,-4.33,-27.88,-3.64
1868,0.027999999,3.21,0.86,-1.42,-5.99,-31.34,0.0,-4.35,-27.95,-3.42
1869,0.028999997,3.66,0.65,-0.82,-6.63,-31.65,0.0,-4.15,-27.56,-3.43
1870,0.027,3.08,0.67,-1.15,-6.88,-29.97,0.0,-4.15,-27.53,-3.38
