id,dt,accel_x,accel_y,accel_z,accel_angle_x,accel_angle_y,accel_angle_z,angle_x,angle_y,angle_z,phase
0,0.0,0.0,0.0,0.0,0.0,0.0,0.0,0.0,0.0,0.0,0
1,0.0,-14404.0,3616.0,6516.0,12.88,62.64,0.0,0.52,2.51,0.0,0
2,0.06599999,-14432.0,3664.0,6568.0,13.01,62.47,0.0,1.04,4.93,0.0,0
3,0.064,-14416.0,3840.0,6556.0,13.63,62.21,0.0,1.6,7.3,-0.03,0
4,0.06599999,-14724.0,3636.0,6176.0,12.83,64.05,0.0,1.87,9.71,-0.11,0
5,0.06599999,-14484.0,3552.0,6504.0,12.61,62.9,0.0,2.46,11.69,-0.04,0
6,0.065,-14484.0,3664.0,6540.0,12.98,62.64,0.0,2.83,13.79,-0.06,0
7,0.06599999,-14456.0,3524.0,6512.0,12.53,62.88,0.0,3.28,15.72,-0.03,0
8,0.065,-14536.0,3632.0,6388.0,12.88,63.18,0.0,3.69,17.59,-0.03,0
9,0.06599999,-14404.0,3572.0,6476.0,12.74,62.82,0.0,4.03,19.45,-0.05,0
10,0.065,-14484.0,3688.0,6540.0,13.07,62.6,0.0,4.39,21.22,-0.07,0
11,0.067,-14564.0,3596.0,6580.0,12.68,62.76,0.0,4.7,22.97,-0.1,0
12,0.028999997,-14540.0,3672.0,6476.0,12.99,62.89,0.0,5.03,24.56,-0.11,0
13,0.029999997,-14508.0,3564.0,6476.0,12.64,63.0,0.0,5.36,26.07,-0.08,0
14,0.029999997,-14492.0,3692.0,6420.0,13.11,62.93,0.0,5.67,27.58,-0.07,0
15,0.029999997,-14480.0,3492.0,6460.0,12.42,63.11,0.0,5.9,29.09,-0.12,0
16,0.028999997,-14448.0,3596.0,6336.0,12.84,63.24,0.0,6.18,30.42,-0.15,0
17,0.031,-14380.0,3568.0,6384.0,12.78,63.04,0.0,6.45,31.72,-0.17,0
18,0.029999997,-14576.0,3648.0,6656.0,12.83,62.49,0.0,6.68,33.05,-0.18,0
19,0.028999997,-14460.0,3648.0,6496.0,12.96,62.74,0.0,6.94,34.27,-0.18,0
20,0.029999997,-14356.0,3788.0,6756.0,13.43,61.65,0.0,7.16,35.3,-0.18,0
21,0.031,-14456.0,3524.0,6348.0,12.58,63.33,0.0,7.27,36.52,-0.25,0
22,0.028999997,-14544.0,3728.0,6688.0,13.11,62.23,0.0,7.52,37.47,-0.25,0
23,0.031,-14456.0,3672.0,6496.0,13.04,62.7,0.0,7.77,38.47,-0.23,0
24,0.029999997,-14464.0,3624.0,6560.0,12.85,62.61,0.0,7.91,39.71,-0.27,0
25,0.031,-14548.0,3464.0,6144.0,12.37,64.13,0.0,8.02,40.83,-0.28,0
26,0.028999997,-14492.0,3696.0,6260.0,13.18,63.36,0.0,8.35,41.39,-0.21,0
27,0.029999997,-14608.0,3640.0,6672.0,12.77,62.51,0.0,8.53,42.24,-0.23,0
28,0.031,-14492.0,3648.0,6392.0,12.97,63.08,0.0,8.66,43.28,-0.26,0
29,0.028999997,-14436.0,3584.0,6612.0,12.72,62.48,0.0,8.83,44.05,-0.25,0
30,0.031,-14364.0,3492.0,6432.0,12.51,63.0,0.0,9.03,44.75,-0.27,0
31,0.029999997,-14520.0,3772.0,6708.0,13.27,62.08,0.0,9.19,45.37,-0.31,0
32,0.031,-14620.0,3520.0,6332.0,12.46,63.64,0.0,9.15,46.39,-0.46,0
33,0.028999997,-14664.0,3888.0,6184.0,13.73,63.52,0.0,9.46,46.96,-0.38,0
34,0.031,-14348.0,3696.0,6348.0,13.26,62.89,0.0,9.62,47.65,-0.28,0
35,0.029999997,-14340.0,3488.0,5896.0,12.68,64.47,0.0,9.79,48.35,-0.16,0
36,0.029999997,-14432.0,3592.0,6548.0,12.77,62.64,0.0,10.03,48.87,0.0,0
37,0.028999997,-14396.0,3420.0,6800.0,12.12,62.13,0.0,10.1,49.49,0.03,0
38,0.029999997,-14460.0,3608.0,6576.0,12.8,62.58,0.0,10.16,50.12,-0.02,0
39,0.06599999,-14400.0,3484.0,6460.0,12.45,62.99,0.0,10.2,50.56,0.07,0
40,0.06599999,-14600.0,3620.0,5972.0,12.92,64.44,0.0,10.26,51.51,0.13,0
41,0.065,-14488.0,3528.0,6596.0,12.5,62.69,0.0,10.17,52.5,0.32,0
42,0.06599999,-14660.0,3616.0,6588.0,12.68,62.86,0.0,10.32,53.25,0.1,0
43,0.065,-14156.0,3556.0,6356.0,12.91,62.77,0.0,10.34,53.22,0.09,0
44,0.067,-14440.0,3504.0,5892.0,12.66,64.6,0.0,10.21,54.13,-0.14,0
45,0.06599999,-14508.0,3356.0,6512.0,11.92,63.21,0.0,10.07,55.25,-0.44,0
46,0.06599999,-14696.0,3612.0,6660.0,12.62,62.73,0.0,10.28,55.45,-0.43,0
47,0.06599999,-14364.0,3316.0,6308.0,11.93,63.61,0.0,10.56,55.21,-0.18,0
48,0.06599999,-14288.0,3472.0,6016.0,12.62,64.07,0.0,10.76,55.19,0.01,0
49,0.029999997,-14444.0,3740.0,6384.0,13.32,62.88,0.0,10.84,55.52,0.03,0
50,0.029999997,-14800.0,3696.0,5640.0,13.14,65.51,0.0,10.94,55.95,-0.04,0
51,0.029999997,-14992.0,3404.0,6132.0,11.87,64.93,0.0,11.03,56.18,-0.01,0
52,0.031,-14516.0,3664.0,5772.0,13.2,64.78,0.0,11.09,56.62,-0.07,0
53,0.029999997,-14988.0,3616.0,6180.0,12.57,64.47,0.0,11.15,57.23,-0.07,0
54,0.029999997,-14800.0,3576.0,6752.0,12.4,62.7,0.0,11.19,57.58,-0.09,0
55,0.031,-14492.0,3540.0,6168.0,12.67,63.86,0.0,11.25,57.74,-0.06,0
56,0.031,-14616.0,3392.0,6160.0,12.07,64.31,0.0,11.27,58.01,-0.12,0
57,0.029999997,-14880.0,3492.0,5980.0,12.28,65.04,0.0,11.43,58.37,-0.17,0
58,0.029999997,-14696.0,3404.0,6484.0,11.96,63.51,0.0,11.64,58.27,-0.12,0
59,0.031,-14444.0,3632.0,6324.0,12.97,63.21,0.0,11.66,58.47,-0.2,0
60,0.029999997,-14408.0,3412.0,6428.0,12.2,63.2,0.0,11.68,58.75,-0.25,0
61,0.029999997,-14920.0,3356.0,6268.0,11.72,64.52,0.0,11.77,58.88,-0.29,0
62,0.031,-14644.0,3360.0,6320.0,11.9,63.95,0.0,11.75,59.19,-0.33,0
63,0.029999997,-14544.0,3532.0,5708.0,12.74,65.23,0.0,11.82,59.34,-0.31,0
64,0.029999997,-14440.0,3520.0,6516.0,12.53,62.85,0.0,11.76,59.53,-0.39,0
65,0.029999997,-14504.0,3452.0,5992.0,12.41,64.51,0.0,11.74,59.8,-0.52,0
66,0.031,-14772.0,3628.0,6404.0,12.7,63.51,0.0,11.84,59.84,-0.46,0
67,0.031,-14572.0,3616.0,6328.0,12.82,63.43,0.0,11.78,60.21,-0.53,0
68,0.028999997,-14632.0,3544.0,6152.0,12.59,64.12,0.0,11.94,60.22,-0.48,0
69,0.031,-14564.0,3624.0,6632.0,12.76,62.57,0.0,12.06,60.16,-0.38,0
70,0.029999997,-14600.0,3616.0,6800.0,12.65,62.19,0.0,11.89,60.75,-0.6,0
71,0.031,-14820.0,3500.0,6492.0,12.21,63.54,0.0,11.97,60.45,-0.49,0
72,0.029999997,-14596.0,3596.0,6500.0,12.68,63.03,0.0,11.97,60.65,-0.55,0
73,0.029999997,-14020.0,3316.0,5696.0,12.36,64.82,0.0,11.94,60.87,-0.51,0
74,0.031,-14652.0,3652.0,6884.0,12.71,61.99,0.0,12.3,60.64,-0.33,0
75,0.028999997,-14340.0,3448.0,6112.0,12.47,63.92,0.0,12.11,61.38,-0.5,0
76,0.031,-14356.0,3316.0,5416.0,12.19,66.14,0.0,12.27,61.3,-0.34,0
77,0.029999997,-14708.0,3368.0,6192.0,11.92,64.39,0.0,12.22,61.46,-0.34,0
78,0.031,-14628.0,3656.0,6492.0,12.87,63.01,0.0,12.21,61.78,-0.46,0
79,0.028999997,-14644.0,3556.0,6280.0,12.58,63.76,0.0,12.17,61.84,-0.51,0
80,0.031,-14452.0,3692.0,6412.0,13.14,62.89,0.0,12.09,61.66,-0.5,0
81,0.029999997,-14168.0,3524.0,6188.0,12.84,63.32,0.0,12.1,61.72,-0.41,0
82,0.029999997,-14788.0,3596.0,6224.0,12.63,64.08,0.0,12.15,61.9,-0.35,0
83,0.031,-14896.0,3732.0,6220.0,13.02,64.04,0.0,12.08,62.27,-0.44,0
84,0.031,-14844.0,3516.0,6444.0,12.26,63.69,0.0,12.06,62.23,-0.39,0
85,0.028999997,-14740.0,3456.0,6840.0,12.01,62.53,0.0,11.94,62.42,-0.34,0
86,0.031,-14208.0,3456.0,6160.0,12.58,63.57,0.0,12.06,62.65,-0.27,0
87,0.031,-14496.0,3288.0,6024.0,11.83,64.67,0.0,12.11,62.54,-0.22,0
88,0.029999997,-14416.0,3420.0,5720.0,12.44,65.19,0.0,12.3,62.51,-0.18,0
89,0.029999997,-14508.0,3660.0,6528.0,12.96,62.71,0.0,12.3,62.66,-0.2,0
90,0.031,-14564.0,3728.0,6240.0,13.24,63.48,0.0,12.32,62.71,-0.23,0
91,0.029999997,-14560.0,3400.0,6288.0,12.1,63.85,0.0,12.5,62.55,-0.18,0
92,0.029999997,-14736.0,3676.0,6672.0,12.8,62.66,0.0,12.43,62.6,-0.25,0
93,0.029999997,-14532.0,3680.0,6592.0,12.99,62.55,0.0,12.6,62.46,-0.24,0
94,0.031,-14636.0,3616.0,6076.0,12.85,64.22,0.0,12.64,62.65,-0.27,0
95,0.029999997,-14632.0,3480.0,5720.0,12.49,65.41,0.0,12.64,62.83,-0.3,0
96,0.029999997,-14708.0,3552.0,6248.0,12.53,63.96,0.0,12.73,62.64,-0.19,0
97,0.029999997,-14580.0,3512.0,6064.0,12.54,64.33,0.0,12.67,62.68,-0.19,0
98,0.029999997,-14208.0,3340.0,6552.0,12.05,62.63,0.0,12.54,63.03,-0.29,0
99,0.029999997,-14696.0,3544.0,5848.0,12.63,65.05,0.0,12.49,63.03,-0.23,0
100,0.029999997,-14784.0,3580.0,6516.0,12.49,63.3,0.0,12.72,62.9,-0.06,0
101,0.031,-14592.0,3472.0,6476.0,12.27,63.27,0.0,12.6,63.32,-0.08,0
102,0.029999997,-14472.0,3548.0,6280.0,12.67,63.51,0.0,12.63,63.19,0.04,0
103,0.028999997,-14460.0,3856.0,6640.0,13.62,62.03,0.0,12.64,63.34,-0.01,0
104,0.031,-14400.0,3548.0,5856.0,12.86,64.57,0.0,12.59,63.51,0.02,0
105,0.029999997,-14460.0,3392.0,6440.0,12.09,63.28,0.0,12.73,63.21,0.22,0
106,0.028999997,-14440.0,3400.0,6744.0,12.04,62.39,0.0,12.64,63.39,0.11,0
107,0.028999997,-14684.0,3644.0,5792.0,13.0,65.01,0.0,12.57,63.72,-0.09,0
108,0.031,-14844.0,3640.0,6176.0,12.76,64.22,0.0,12.81,63.3,0.06,0
109,0.028999997,-14268.0,3696.0,6768.0,13.17,61.61,0.0,12.92,63.18,0.09,0
110,0.029999997,-14528.0,3388.0,5976.0,12.17,64.69,0.0,12.72,63.47,-0.05,0
111,0.029999997,-14524.0,3348.0,6152.0,11.98,64.25,0.0,12.82,63.24,0.04,0
112,0.029999997,-14524.0,3596.0,6284.0,12.8,63.5,0.0,12.76,63.23,0.04,0
113,0.028999997,-14644.0,3680.0,6160.0,13.04,63.9,0.0,12.82,63.12,0.06,0
114,0.029999997,-14604.0,3692.0,6168.0,13.11,63.79,0.0,12.87,63.0,0.07,0
115,0.029999997,-14536.0,3796.0,6432.0,13.43,62.81,0.0,12.94,63.0,0.07,0
116,0.028999997,-14472.0,3504.0,6408.0,12.48,63.22,0.0,13.0,63.05,0.05,0
117,0.029999997,-14568.0,3448.0,6024.0,12.34,64.52,0.0,12.97,63.06,0.02,0
118,0.029999997,-14688.0,3700.0,6396.0,13.0,63.29,0.0,13.03,62.86,0.03,0
119,0.028999997,-14608.0,3720.0,6292.0,13.16,63.42,0.0,12.99,62.97,-0.03,0
120,0.029999997,-14640.0,3556.0,6292.0,12.58,63.73,0.0,12.96,63.06,-0.03,0
121,0.031,-14476.0,3736.0,6556.0,13.23,62.47,0.0,13.02,62.95,0.05,0
122,0.029999997,-14564.0,3540.0,6312.0,12.57,63.58,0.0,13.0,63.05,0.07,0
123,0.028999997,-14512.0,3388.0,6228.0,12.11,63.96,0.0,12.94,63.12,0.06,0
124,0.029999997,-14464.0,3596.0,6284.0,12.85,63.41,0.0,12.93,63.14,0.05,0
125,0.029999997,-14472.0,3676.0,6296.0,13.11,63.26,0.0,12.89,63.21,0.0,0
126,0.027999999,-14532.0,3648.0,6332.0,12.96,63.3,0.0,12.84,63.19,-0.02,0
127,0.031,-14540.0,3624.0,6404.0,12.85,63.16,0.0,12.79,63.24,-0.05,0
128,0.029999997,-14548.0,3664.0,6328.0,13.0,63.31,0.0,12.8,63.27,-0.07,0
129,0.029999997,-14472.0,3612.0,6408.0,12.86,63.06,0.0,12.86,63.19,-0.03,0
130,0.029999997,-14616.0,3496.0,6280.0,12.39,63.81,0.0,12.87,63.25,-0.02,0
131,0.031,-14524.0,3492.0,6212.0,12.47,63.87,0.0,12.77,63.3,-0.07,0
132,0.029999997,-14576.0,3692.0,6268.0,13.1,63.48,0.0,12.8,63.21,-0.06,0
133,0.029999997,-14484.0,3764.0,6244.0,13.42,63.28,0.0,12.84,63.26,-0.12,0
134,0.029999997,-14640.0,3576.0,6264.0,12.66,63.77,0.0,12.83,63.23,-0.13,0
135,0.031,-14592.0,3652.0,6368.0,12.92,63.29,0.0,12.84,63.19,-0.13,0
136,0.028999997,-14596.0,3644.0,6356.0,12.89,63.35,0.0,12.84,63.21,-0.14,0
137,0.029999997,-14624.0,3668.0,6468.0,12.92,63.05,0.0,12.83,63.2,-0.13,0
138,0.031,-14560.0,3544.0,6672.0,12.48,62.58,0.0,12.81,63.22,-0.12,0
139,0.028999997,-14472.0,3540.0,6476.0,12.59,62.98,0.0,12.83,63.18,-0.09,0
140,0.031,-14464.0,3596.0,6364.0,12.82,63.19,0.0,12.86,63.11,-0.06,0
141,0.029999997,-14460.0,3636.0,6364.0,12.96,63.12,0.0,12.85,63.16,-0.09,0
142,0.031,-14540.0,3596.0,6344.0,12.77,63.36,0.0,12.86,63.15,-0.09,0
143,0.028999997,-14600.0,3576.0,6476.0,12.62,63.13,0.0,12.85,63.14,-0.1,0
144,0.031,-14616.0,3500.0,6376.0,12.38,63.54,0.0,12.82,63.18,-0.12,0
145,0.029999997,-14516.0,3608.0,6356.0,12.83,63.28,0.0,12.82,63.17,-0.13,0
146,0.029999997,-14580.0,3600.0,6592.0,12.68,62.74,0.0,12.82,63.14,-0.13,0
147,0.029999997,-14516.0,3564.0,6500.0,12.63,62.95,0.0,12.81,63.15,-0.13,0
148,0.029999997,-14580.0,3560.0,6440.0,12.59,63.22,0.0,12.79,63.16,-0.15,0
149,0.031,-14552.0,3560.0,6492.0,12.59,63.03,0.0,12.78,63.15,-0.16,0
150,0.028999997,-14456.0,3564.0,6448.0,12.69,62.99,0.0,12.77,63.19,-0.16,0
151,0.031,-14412.0,3644.0,6404.0,13.01,62.92,0.0,12.8,63.16,-0.14,0
152,0.029999997,-14476.0,3648.0,6612.0,12.91,62.45,0.0,12.82,63.13,-0.13,0
153,0.029999997,-14476.0,3564.0,6520.0,12.65,62.83,0.0,12.81,63.12,-0.14,0
154,0.029999997,-14476.0,3644.0,6528.0,12.92,62.69,0.0,12.82,63.1,-0.13,0
155,0.031,-14568.0,3652.0,6300.0,12.96,63.44,0.0,12.83,63.15,-0.14,0
156,0.028999997,-14624.0,3560.0,6608.0,12.51,62.83,0.0,12.82,63.13,-0.12,0
157,0.031,-14504.0,3644.0,6520.0,12.91,62.75,0.0,12.81,63.14,-0.13,0
158,0.029999997,-14440.0,3584.0,6520.0,12.75,62.74,0.0,12.8,63.14,-0.12,0
159,0.029999997,-14548.0,3524.0,6448.0,12.49,63.2,0.0,12.79,63.17,-0.13,0
160,0.029999997,-14492.0,3556.0,6596.0,12.59,62.66,0.0,12.77,63.16,-0.12,0
161,0.029999997,-14440.0,3612.0,6460.0,12.86,62.86,0.0,12.76,63.15,-0.12,0
162,0.031,-14500.0,3660.0,6492.0,12.97,62.8,0.0,12.77,63.16,-0.12,0
163,0.028999997,-14476.0,3592.0,6280.0,12.82,63.45,0.0,12.77,63.19,-0.12,0
164,0.031,-14528.0,3592.0,6440.0,12.74,63.09,0.0,12.77,63.17,-0.11,0
165,0.029999997,-14580.0,3652.0,6440.0,12.91,63.08,0.0,12.77,63.2,-0.12,0
166,0.031,-14488.0,3652.0,6532.0,12.94,62.68,0.0,12.78,63.19,-0.12,0
167,0.028999997,-14568.0,3612.0,6660.0,12.71,62.52,0.0,12.78,63.16,-0.11,0
168,0.029999997,-14560.0,3516.0,6464.0,12.45,63.19,0.0,12.76,63.18,-0.12,0
169,0.031,-14448.0,3652.0,6552.0,12.96,62.56,0.0,12.8,63.15,-0.11,0
170,0.028999997,-14556.0,3580.0,6656.0,12.61,62.56,0.0,12.79,63.14,-0.11,0
171,0.031,-14560.0,3632.0,6520.0,12.83,62.86,0.0,12.79,63.14,-0.12,0
172,0.029999997,-14484.0,3616.0,6416.0,12.86,63.05,0.0,12.79,63.13,-0.12,0
173,0.031,-14580.0,3720.0,6520.0,13.11,62.76,0.0,12.82,63.11,-0.11,0
174,0.028999997,-14484.0,3716.0,6416.0,13.2,62.89,0.0,12.83,63.1,-0.11,0
175,0.031,-14416.0,3648.0,6320.0,13.05,63.15,0.0,12.85,63.11,-0.1,0
176,0.029999997,-14600.0,3668.0,6508.0,12.92,62.9,0.0,12.84,63.11,-0.1,0
177,0.029999997,-14456.0,3524.0,6512.0,12.53,62.88,0.0,12.83,63.12,-0.1,0
178,0.029999997,-14564.0,3692.0,6532.0,13.02,62.74,0.0,12.84,63.12,-0.1,0
179,0.029999997,-14432.0,3584.0,6528.0,12.75,62.71,0.0,12.84,63.1,-0.09,0
180,0.029999997,-14432.0,3588.0,6532.0,12.76,62.69,0.0,12.84,63.1,-0.1,0
181,0.029999997,-14404.0,3508.0,6476.0,12.52,62.92,0.0,12.81,63.11,-0.11,0
182,0.031,-14612.0,3600.0,6512.0,12.68,63.01,0.0,12.8,63.11,-0.12,0
183,0.029999997,-14516.0,3568.0,6464.0,12.66,63.04,0.0,12.8,63.12,-0.13,0
184,0.029999997,-14544.0,3580.0,6280.0,12.73,63.57,0.0,12.8,63.14,-0.13,0
185,0.029999997,-14576.0,3640.0,6404.0,12.88,63.19,0.0,12.79,63.15,-0.13,0
186,0.031,-14524.0,3636.0,6516.0,12.87,62.81,0.0,12.81,63.14,-0.12,0
187,0.028999997,-14524.0,3636.0,6404.0,12.9,63.11,0.0,12.82,63.15,-0.12,0
188,0.031,-14524.0,3716.0,6564.0,13.12,62.56,0.0,12.84,63.13,-0.12,0
189,0.029999997,-14416.0,3608.0,6408.0,12.88,62.97,0.0,12.83,63.13,-0.12,0
190,0.029999997,-14468.0,3672.0,6604.0,13.0,62.42,0.0,12.85,63.09,-0.11,0
191,0.029999997,-14536.0,3636.0,6492.0,12.87,62.89,0.0,12.85,63.1,-0.12,0
192,0.029999997,-14456.0,3592.0,6372.0,12.81,63.16,0.0,12.86,63.09,-0.11,0
193,0.031,-14468.0,3656.0,6480.0,12.99,62.79,0.0,12.86,63.09,-0.12,0
194,0.028999997,-14464.0,3568.0,6404.0,12.71,63.12,0.0,12.85,63.09,-0.12,0
195,0.031,-14432.0,3640.0,6312.0,13.01,63.21,0.0,12.86,63.1,-0.12,0
196,0.029999997,-14516.0,3620.0,6420.0,12.85,63.08,0.0,12.86,63.12,-0.11,0
197,0.029999997,-14544.0,3564.0,6564.0,12.59,62.82,0.0,12.85,63.11,-0.11,0
198,0.029999997,-14428.0,3612.0,6468.0,12.87,62.82,0.0,12.85,63.11,-0.11,0
199,0.031,-14476.0,3628.0,6404.0,12.91,63.05,0.0,12.85,63.12,-0.11,0
200,0.029999997,-14600.0,3528.0,6408.0,12.48,63.39,0.0,12.84,63.13,-0.12,0
201,0.028999997,-14484.0,3608.0,6380.0,12.84,63.16,0.0,12.83,63.14,-0.13,0
202,0.031,-14420.0,3656.0,6512.0,13.01,62.62,0.0,12.84,63.13,-0.13,0
203,0.029999997,-14528.0,3640.0,6520.0,12.88,62.8,0.0,12.83,63.13,-0.13,0
204,0.029999997,-14464.0,3624.0,6564.0,12.85,62.6,0.0,12.83,63.12,-0.13,0
205,0.029999997,-14428.0,3600.0,6552.0,12.8,62.61,0.0,12.85,63.09,-0.13,0
206,0.031,-14436.0,3612.0,6448.0,12.87,62.89,0.0,12.84,63.1,-0.13,0
207,0.029999997,-14544.0,3556.0,6516.0,12.58,62.96,0.0,12.84,63.08,-0.13,0
208,0.029999997,-14396.0,3632.0,6560.0,12.93,62.49,0.0,12.85,63.07,-0.13,0
209,0.029999997,-14428.0,3648.0,6464.0,12.99,62.78,0.0,12.86,63.07,-0.13,0
210,0.031,-14432.0,3620.0,6484.0,12.89,62.77,0.0,12.86,63.08,-0.13,0
211,0.028999997,-14420.0,3576.0,6484.0,12.74,62.82,0.0,12.87,63.06,-0.12,0
212,0.029999997,-14460.0,3620.0,6404.0,12.89,63.04,0.0,12.87,63.08,-0.12,0
213,0.031,-14476.0,3540.0,6496.0,12.58,62.93,0.0,12.86,63.08,-0.12,0
214,0.028999997,-14596.0,3704.0,6536.0,13.04,62.77,0.0,12.86,63.06,-0.13,0
215,0.031,-14528.0,3704.0,6388.0,13.14,63.06,0.0,12.87,63.07,-0.13,0
216,0.029999997,-14416.0,3596.0,6404.0,12.84,63.0,0.0,12.88,63.07,-0.13,0
217,0.031,-14480.0,3624.0,6624.0,12.82,62.46,0.0,12.87,63.05,-0.14,0
218,0.028999997,-14464.0,3596.0,6432.0,12.8,63.0,0.0,12.87,63.06,-0.15,0
219,0.031,-14512.0,3660.0,6488.0,12.97,62.83,0.0,12.87,63.05,-0.16,0
220,0.029999997,-14460.0,3700.0,6632.0,13.09,62.29,0.0,12.87,63.03,-0.17,0
221,0.029999997,-14560.0,3516.0,6380.0,12.47,63.42,0.0,12.85,63.04,-0.18,0
222,0.029999997,-14472.0,3700.0,6608.0,13.09,62.38,0.0,12.87,63.02,-0.17,0
223,0.029999997,-14380.0,3744.0,6472.0,13.36,62.53,0.0,12.89,63.02,-0.17,0
224,0.031,-14508.0,3676.0,6564.0,13.0,62.59,0.0,12.89,63.0,-0.17,0
225,0.028999997,-14440.0,3572.0,6668.0,12.66,62.35,0.0,12.89,62.97,-0.18,0
226,0.031,-14576.0,3652.0,6572.0,12.87,62.71,0.0,12.89,62.97,-0.18,0
227,0.029999997,-14420.0,3580.0,6592.0,12.72,62.52,0.0,12.89,62.95,-0.17,0
228,0.029999997,-14472.0,3608.0,6348.0,12.86,63.23,0.0,12.9,62.96,-0.17,0
229,0.029999997,-14400.0,3576.0,6476.0,12.76,62.81,0.0,12.9,62.95,-0.16,0
230,0.031,-14524.0,3520.0,6584.0,12.45,62.8,0.0,12.89,62.95,-0.16,0
231,0.028999997,-14540.0,3536.0,6648.0,12.47,62.62,0.0,12.87,62.95,-0.16,0
232,0.029999997,-14504.0,3616.0,6640.0,12.77,62.47,0.0,12.88,62.93,-0.16,0
233,0.031,-14512.0,3648.0,6524.0,12.91,62.75,0.0,12.87,62.93,-0.17,0
234,0.029999997,-14424.0,3592.0,6508.0,12.79,62.74,0.0,12.87,62.94,-0.17,0
235,0.029999997,-14560.0,3652.0,6488.0,12.9,62.92,0.0,12.87,62.95,-0.18,0
236,0.029999997,-14512.0,3612.0,6408.0,12.83,63.12,0.0,12.87,62.96,-0.18,0
237,0.031,-14408.0,3696.0,6668.0,13.11,62.12,0.0,12.87,62.94,-0.19,0
238,0.028999997,-14548.0,3620.0,6460.0,12.81,63.02,0.0,12.87,62.95,-0.19,0
239,0.031,-14448.0,3564.0,6460.0,12.69,62.95,0.0,12.86,62.95,-0.2,0
240,0.029999997,-14464.0,3636.0,6528.0,12.91,62.68,0.0,12.86,62.94,-0.2,0
241,0.031,-14388.0,3624.0,6504.0,12.93,62.64,0.0,12.87,62.93,-0.19,0
242,0.028999997,-14420.0,3572.0,6552.0,12.71,62.64,0.0,12.87,62.92,-0.18,0
243,0.029999997,-14520.0,3584.0,6544.0,12.68,62.8,0.0,12.86,62.91,-0.18,0
244,0.031,-14476.0,3548.0,6352.0,12.65,63.32,0.0,12.86,62.94,-0.17,0
245,0.028999997,-14508.0,3564.0,6600.0,12.6,62.66,0.0,12.85,62.95,-0.17,0
246,0.031,-14540.0,3596.0,6332.0,12.78,63.4,0.0,12.85,62.96,-0.17,0
247,0.029999997,-14400.0,3572.0,6536.0,12.73,62.65,0.0,12.86,62.95,-0.16,0
248,0.031,-14464.0,3692.0,6388.0,13.14,62.97,0.0,12.88,62.97,-0.16,0
249,0.028999997,-14496.0,3636.0,6400.0,12.92,63.08,0.0,12.87,62.99,-0.16,0
250,0.031,-14468.0,3588.0,6532.0,12.74,62.75,0.0,12.86,62.99,-0.16,0
251,0.029999997,-14364.0,3592.0,6520.0,12.83,62.61,0.0,12.87,63.0,-0.16,0
252,0.029999997,-14428.0,3732.0,6548.0,13.25,62.42,0.0,12.89,62.98,-0.13,0
253,0.029999997,-14492.0,3580.0,6468.0,12.71,62.97,0.0,12.89,63.0,-0.13,0
254,0.029999997,-14504.0,3664.0,6468.0,12.99,62.86,0.0,12.9,63.0,-0.13,0
255,0.029999997,-14432.0,3744.0,6520.0,13.3,62.48,0.0,12.92,62.98,-0.13,0
256,0.029999997,-14456.0,3652.0,6564.0,12.95,62.54,0.0,12.91,62.97,-0.14,0
257,0.031,-14476.0,3692.0,6308.0,13.16,63.21,0.0,12.95,62.96,-0.14,0
258,0.029999997,-14448.0,3596.0,6476.0,12.8,62.86,0.0,12.97,63.0,-0.13,0
259,0.029999997,-14428.0,3576.0,6496.0,12.73,62.8,0.0,12.96,62.96,-0.13,0
260,0.029999997,-14520.0,3548.0,6476.0,12.58,63.04,0.0,12.94,62.96,-0.13,0
261,0.031,-14368.0,3556.0,6408.0,12.74,62.98,0.0,12.94,62.98,-0.13,0
262,0.028999997,-14416.0,3620.0,6532.0,12.88,62.61,0.0,12.96,62.95,-0.11,0
263,0.031,-14424.0,3668.0,6396.0,13.09,62.93,0.0,12.96,62.99,-0.12,0
264,0.029999997,-14448.0,3652.0,6492.0,12.98,62.73,0.0,12.97,62.98,-0.11,0
265,0.029999997,-14488.0,3628.0,6456.0,12.88,62.93,0.0,12.93,63.01,-0.12,0
266,0.029999997,-14596.0,3620.0,6572.0,12.74,62.79,0.0,12.92,62.97,-0.12,0
267,0.029999997,-14504.0,3712.0,6312.0,13.21,63.21,0.0,12.92,63.0,-0.14,0
268,0.031,-14408.0,3636.0,6360.0,13.0,63.05,0.0,12.95,63.02,-0.16,0
269,0.028999997,-14476.0,3652.0,6532.0,12.95,62.66,0.0,12.99,62.97,-0.13,0
270,0.031,-14476.0,3644.0,6676.0,12.88,62.28,0.0,12.98,62.94,-0.12,0
271,0.029999997,-14452.0,3612.0,6572.0,12.82,62.58,0.0,12.98,62.96,-0.12,0
272,0.029999997,-14456.0,3680.0,6452.0,13.09,62.81,0.0,13.01,62.94,-0.1,0
273,0.029999997,-14412.0,3672.0,6656.0,13.02,62.19,0.0,12.99,62.96,-0.11,0
274,0.031,-14492.0,3724.0,6436.0,13.22,62.84,0.0,12.97,62.97,-0.12,0
275,0.029999997,-14564.0,3772.0,6480.0,13.31,62.76,0.0,12.99,62.92,-0.11,0
276,0.028999997,-14420.0,3556.0,6348.0,12.72,63.23,0.0,12.96,62.98,-0.11,0
277,0.031,-14524.0,3644.0,6692.0,12.84,62.32,0.0,12.94,62.98,-0.08,0
278,0.029999997,-14468.0,3600.0,6548.0,12.77,62.68,0.0,12.97,62.99,-0.04,0
279,0.029999997,-14524.0,3436.0,6560.0,12.17,62.98,0.0,12.89,63.05,-0.07,0
280,0.029999997,-14352.0,3516.0,6296.0,12.64,63.32,0.0,12.95,63.02,-0.08,0
281,0.031,-14472.0,3596.0,6488.0,12.78,62.86,0.0,12.97,62.96,-0.09,0
282,0.029999997,-14588.0,3704.0,6496.0,13.06,62.86,0.0,12.91,63.02,-0.12,0
283,0.029999997,-14520.0,3680.0,6484.0,13.03,62.82,0.0,12.88,63.02,-0.15,0
284,0.029999997,-14484.0,3692.0,6360.0,13.14,63.08,0.0,12.91,62.96,-0.15,0
285,0.031,-14432.0,3664.0,6532.0,13.02,62.57,0.0,12.88,62.98,-0.17,0
286,0.028999997,-14452.0,3632.0,6280.0,12.98,63.34,0.0,12.82,63.09,-0.18,0
287,0.029999997,-14512.0,3636.0,6316.0,12.94,63.33,0.0,12.82,63.04,-0.17,0
288,0.031,-14584.0,3708.0,6736.0,13.0,62.2,0.0,12.77,63.12,-0.2,0
289,0.028999997,-14736.0,3528.0,6368.0,12.39,63.71,0.0,12.71,63.13,-0.21,0
290,0.031,-14768.0,3800.0,6508.0,13.25,62.96,0.0,12.7,63.21,-0.25,0
291,0.029999997,-14528.0,3784.0,6336.0,13.43,63.07,0.0,12.64,63.27,-0.29,0
292,0.031,-14748.0,3700.0,6280.0,13.0,63.7,0.0,12.64,63.14,-0.3,0
293,0.028999997,-14460.0,3604.0,6396.0,12.84,63.08,0.0,12.62,63.35,-0.37,0
294,0.031,-12492.0,4548.0,7116.0,17.55,55.94,0.0,12.78,63.5,-0.58,0
295,0.029999997,-12948.0,5496.0,10784.0,18.06,46.93,0.0,14.59,60.87,-0.85,0
296,0.029999997,-19712.0,3936.0,4456.0,11.02,73.22,0.0,13.5,56.16,0.55,0
297,0.029999997,-13952.0,3768.0,10980.0,11.98,50.24,0.0,14.15,52.38,1.64,0
298,0.029999997,-16724.0,8196.0,13320.0,20.97,46.92,0.0,7.25,52.73,3.56,0
299,0.031,-12176.0,5336.0,10212.0,18.56,46.58,0.0,7.82,50.81,4.84,0
300,0.028999997,-14328.0,12892.0,9572.0,36.8,41.74,0.0,4.25,49.04,8.25,0
301,0.031,-11196.0,2592.0,12036.0,8.96,42.28,0.0,-2.93,48.16,10.57,0
302,0.031,-10936.0,-2856.0,22180.0,-6.59,26.06,0.0,-9.13,46.28,11.38,0
303,0.031,-8604.0,-12992.0,32767.0,-20.98,13.72,0.0,-14.55,40.89,10.19,0
304,0.032999996,-11688.0,1824.0,20968.0,4.35,29.04,0.0,-5.87,32.57,4.56,0
305,0.031,-11088.0,7052.0,12812.0,22.6,37.17,0.0,-4.19,26.56,3.67,0
306,0.031,-4432.0,-1360.0,14644.0,-5.08,16.77,0.0,-1.87,22.19,3.5,0
307,0.029999997,-2788.0,-540.0,22688.0,-1.35,7.0,0.0,-3.77,16.94,2.52,0
308,0.031,-5032.0,5132.0,18484.0,15.0,14.7,0.0,-5.27,10.47,2.33,0
309,0.031,-1256.0,3068.0,16936.0,10.24,4.17,0.0,-6.34,4.6,2.86,0
310,0.029999997,2100.0,972.0,15852.0,3.48,-7.53,0.0,-7.33,-1.0,4.05,0
311,0.029999997,4168.0,256.0,12148.0,1.14,-18.93,0.0,-9.64,-5.95,5.56,0
312,0.029999997,4256.0,2756.0,9244.0,15.15,-23.81,0.0,-10.28,-8.74,7.59,0
313,0.031,5228.0,-1384.0,14676.0,-5.08,-19.53,0.0,-11.07,-8.86,9.93,0
314,0.031,3336.0,656.0,17484.0,2.11,-10.79,0.0,-12.98,-7.91,12.92,0
315,0.031,1936.0,628.0,17396.0,2.05,-6.35,0.0,-13.16,-7.36,18.45,0
316,0.031,3204.0,-4044.0,20172.0,-11.2,-8.85,0.0,-12.2,-5.88,21.19,0
317,0.032,1984.0,-3920.0,20244.0,-10.91,-5.5,0.0,-9.8,-6.17,23.08,0
318,0.029999997,1604.0,-2664.0,17240.0,-8.75,-5.25,0.0,-8.59,-6.41,24.49,0
319,0.032,2564.0,-2132.0,21188.0,-5.7,-6.87,0.0,-7.31,-6.85,25.78,0
320,0.031,-396.0,-484.0,20520.0,-1.35,1.11,0.0,-7.06,-5.99,27.05,0
321,0.029999997,1008.0,-728.0,16692.0,-2.49,-3.45,0.0,-7.41,-6.12,28.22,0
322,0.032,720.0,668.0,12180.0,3.13,-3.38,0.0,-8.15,-5.53,28.89,0
323,0.029999997,920.0,-2584.0,15412.0,-9.5,-3.37,0.0,-6.74,-3.63,29.86,0
324,0.031,248.0,-2400.0,23364.0,-5.86,-0.6,0.0,-6.32,-2.56,30.07,0
325,0.029999997,-1468.0,-576.0,26364.0,-1.25,3.19,0.0,-8.16,-2.04,29.67,0
326,0.032,-44.0,-1440.0,15100.0,-5.45,0.17,0.0,-7.18,-2.47,28.86,0
327,0.031,1276.0,-1824.0,19072.0,-5.45,-3.81,0.0,-6.61,-2.35,28.15,0
328,0.031,1580.0,-1840.0,17468.0,-5.99,-5.14,0.0,-5.13,-2.69,27.19,0
329,0.031,4.0,824.0,18844.0,2.5,-0.01,0.0,-4.49,-2.66,26.56,0
330,0.028999997,1160.0,-1252.0,18120.0,-3.94,-3.65,0.0,-4.92,-2.52,26.14,0
331,0.032,916.0,-1088.0,19532.0,-3.18,-2.68,0.0,-4.64,-2.72,25.81,0
332,0.029999997,1208.0,-1420.0,18596.0,-4.36,-3.71,0.0,-3.66,-3.09,25.65,0
333,0.032,1600.0,-504.0,18280.0,-1.57,-5.0,0.0,-2.28,-3.58,25.31,0
334,0.031,1476.0,488.0,17644.0,1.58,-4.78,0.0,-0.94,-4.09,24.82,0
335,0.031,1524.0,2500.0,16968.0,8.35,-5.08,0.0,-0.4,-4.39,24.64,0
336,0.028999997,1652.0,-844.0,18736.0,-2.57,-5.03,0.0,-0.22,-4.83,24.5,0
337,0.032,2216.0,972.0,18452.0,2.99,-6.84,0.0,-0.37,-5.45,24.56,0
338,0.029999997,2056.0,-268.0,17708.0,-0.86,-6.62,0.0,-0.79,-5.76,24.67,0
339,0.031,2048.0,-56.0,19204.0,-0.17,-6.09,0.0,-0.97,-6.23,24.71,0
340,0.031,2412.0,-328.0,17640.0,-1.06,-7.78,0.0,-1.34,-6.63,24.74,0
341,0.031,2384.0,-520.0,18156.0,-1.63,-7.48,0.0,-1.84,-6.84,24.85,0
342,0.031,2368.0,-388.0,18664.0,-1.18,-7.23,0.0,-1.36,-7.18,24.75,0
343,0.029999997,2568.0,-488.0,17456.0,-1.58,-8.37,0.0,-1.4,-7.31,24.52,0
344,0.031,2944.0,-632.0,17944.0,-1.99,-9.31,0.0,-1.13,-7.34,24.07,0
345,0.032,2664.0,-100.0,18496.0,-0.31,-8.2,0.0,-0.15,-7.38,23.79,0
346,0.031,2468.0,284.0,17512.0,0.92,-8.02,0.0,0.59,-7.28,23.46,0
347,0.028999997,2532.0,484.0,18032.0,1.52,-7.99,0.0,1.08,-7.31,22.83,0
348,0.031,2156.0,944.0,18072.0,2.97,-6.79,0.0,-0.0,-7.2,22.63,0
349,0.029999997,2468.0,340.0,17160.0,1.12,-8.18,0.0,-0.68,-6.96,22.43,0
350,0.029999997,-8596.0,-10300.0,16172.0,-29.35,24.15,0.0,1.29,-6.86,25.05,0
351,0.032,-2812.0,-5788.0,23276.0,-13.87,6.69,0.0,-0.11,-5.94,26.58,0
352,0.032,652.0,-1376.0,16348.0,-4.81,-2.28,0.0,-1.26,-6.07,26.7,0
353,0.031,5760.0,2860.0,16724.0,9.18,-18.75,0.0,-0.88,-6.79,27.44,0
354,0.029999997,3184.0,-1872.0,16832.0,-6.24,-10.65,0.0,0.26,-7.47,27.99,0
355,0.032,2964.0,2516.0,17616.0,8.02,-9.46,0.0,1.45,-7.74,28.25,0
356,0.031,2892.0,1116.0,22068.0,2.87,-7.46,0.0,3.43,-7.7,27.87,0
357,0.028999997,-688.0,-712.0,8040.0,-5.04,4.87,0.0,2.52,-6.68,26.63,0
358,0.031,3392.0,2812.0,18952.0,8.31,-10.04,0.0,3.81,-6.8,26.06,0
359,0.031,3548.0,4576.0,17604.0,14.3,-11.04,0.0,5.72,-7.07,25.46,0
360,0.031,3388.0,5192.0,17648.0,16.12,-10.44,0.0,6.6,-7.45,25.14,0
361,0.029999997,3700.0,5832.0,17536.0,18.03,-11.32,0.0,6.06,-7.85,24.64,0
362,0.031,4092.0,5616.0,17544.0,17.31,-12.52,0.0,5.61,-8.86,24.37,0
363,0.031,2256.0,4648.0,17540.0,14.73,-7.09,0.0,4.8,-8.82,24.05,0
364,0.031,3532.0,4460.0,19284.0,12.82,-10.12,0.0,3.05,-9.24,24.06,0
365,0.031,2888.0,3076.0,16472.0,10.42,-9.78,0.0,1.66,-10.44,24.26,0
366,0.031,3532.0,2192.0,18568.0,6.62,-10.7,0.0,1.1,-10.93,24.36,0
367,0.031,3532.0,2164.0,14844.0,8.07,-13.25,0.0,-0.15,-11.39,24.86,0
368,0.031,3828.0,-36.0,15768.0,-0.13,-13.65,0.0,-1.08,-11.73,25.12,0
369,0.031,3344.0,-312.0,15816.0,-1.11,-11.94,0.0,-1.96,-11.75,25.33,0
370,0.032,2976.0,-428.0,16168.0,-1.49,-10.43,0.0,-2.93,-11.6,26.19,0
371,0.031,1976.0,1088.0,14644.0,4.21,-7.66,0.0,-2.47,-11.31,26.67,0
372,0.031,-72.0,3408.0,19492.0,9.92,0.21,0.0,-0.79,-9.81,26.86,0
373,0.029999997,644.0,1432.0,21080.0,3.88,-1.75,0.0,0.26,-9.09,27.15,0
374,0.031,1508.0,2892.0,16796.0,9.73,-5.06,0.0,0.83,-9.02,27.95,0
375,0.028999997,2976.0,720.0,15640.0,2.59,-10.76,0.0,0.12,-9.42,28.59,0
376,0.031,2500.0,1140.0,16540.0,3.9,-8.58,0.0,-1.99,-9.68,28.87,0
377,0.031,4228.0,644.0,19972.0,1.81,-11.95,0.0,-3.38,-10.64,29.39,0
378,0.031,4444.0,12.0,21252.0,0.03,-11.81,0.0,-4.49,-11.26,29.46,0
379,0.029999997,4184.0,584.0,18212.0,1.79,-12.93,0.0,-5.2,-12.17,30.04,0
380,0.031,5152.0,-1004.0,17396.0,-3.17,-16.47,0.0,-6.13,-13.21,30.88,0
381,0.032,5160.0,-1260.0,16760.0,-4.11,-17.07,0.0,-7.28,-14.0,31.49,0
382,0.032,4836.0,-1752.0,17608.0,-5.48,-15.29,0.0,-8.61,-14.62,32.01,0
383,0.031,4736.0,-1696.0,16972.0,-5.5,-15.52,0.0,-9.68,-15.4,32.3,0
384,0.032,3696.0,-3108.0,17872.0,-9.66,-11.52,0.0,-11.2,-15.83,32.41,0
385,0.032999996,5376.0,-2908.0,17108.0,-9.21,-17.21,0.0,-12.65,-16.51,33.16,0
386,0.032,5748.0,-3380.0,17260.0,-10.53,-18.1,0.0,-13.56,-17.36,33.72,0
387,0.031,5680.0,-3444.0,17276.0,-10.72,-17.87,0.0,-13.8,-18.28,34.34,0
388,0.032999996,6632.0,-4572.0,16636.0,-14.32,-21.03,0.0,-13.63,-19.37,35.02,0
389,0.032,6316.0,-3512.0,16224.0,-11.4,-20.83,0.0,-13.15,-20.15,35.52,0
390,0.032999996,6432.0,-3444.0,15120.0,-11.84,-22.53,0.0,-12.9,-21.0,35.74,0
391,0.031,6792.0,-2440.0,15744.0,-8.1,-23.09,0.0,-12.6,-21.48,36.02,0
392,0.032,7120.0,-4004.0,15192.0,-13.42,-24.38,0.0,-12.24,-21.71,36.31,0
393,0.032999996,6528.0,-4016.0,16212.0,-12.94,-21.35,0.0,-12.18,-21.23,36.32,0
394,0.032,6188.0,-3632.0,16936.0,-11.39,-19.66,0.0,-12.22,-20.68,36.06,0
395,0.032,6064.0,-3384.0,16580.0,-10.85,-19.72,0.0,-12.11,-20.14,36.17,0
396,0.032,5848.0,-3552.0,15464.0,-12.13,-20.23,0.0,-12.15,-19.45,36.3,0
397,0.032999996,5392.0,-3204.0,17640.0,-9.85,-16.74,0.0,-11.82,-18.88,36.29,0
398,0.032,6096.0,-3828.0,17128.0,-11.89,-19.15,0.0,-11.74,-18.49,36.27,0
399,0.032,5952.0,-3512.0,17844.0,-10.58,-18.12,0.0,-11.72,-18.1,36.15,0
400,0.032,5692.0,-3456.0,17184.0,-10.81,-17.99,0.0,-11.48,-17.96,36.15,0
401,0.032,5492.0,-3760.0,16488.0,-12.21,-17.99,0.0,-11.39,-17.69,36.07,0
402,0.032999996,5428.0,-3152.0,17248.0,-9.89,-17.2,0.0,-11.16,-17.38,35.93,0
403,0.031,5284.0,-3092.0,16380.0,-10.18,-17.59,0.0,-11.14,-17.02,36.02,0
404,0.032999996,5396.0,-3392.0,17252.0,-10.63,-17.06,0.0,-11.18,-16.5,36.01,0
405,0.032,5192.0,-3100.0,17448.0,-9.66,-16.33,0.0,-11.1,-16.05,35.93,0
406,0.032,4756.0,-2728.0,16560.0,-9.0,-15.82,0.0,-11.01,-15.7,36.09,0
407,0.032,4856.0,-3368.0,17480.0,-10.52,-15.26,0.0,-11.25,-15.23,36.29,0
408,0.032,4764.0,-3548.0,17476.0,-11.08,-14.96,0.0,-11.37,-14.85,36.4,0
409,0.032999996,4684.0,-3564.0,17460.0,-11.15,-14.73,0.0,-11.38,-14.52,36.46,0
410,0.032,4656.0,-3588.0,17668.0,-11.11,-14.48,0.0,-11.43,-14.18,36.53,0
411,0.032,4536.0,-3532.0,17932.0,-10.81,-13.94,0.0,-11.4,-13.91,36.5,0
412,0.032,4428.0,-3568.0,17092.0,-11.42,-14.23,0.0,-11.32,-13.67,36.52,0
413,0.032999996,4328.0,-3224.0,17756.0,-10.0,-13.49,0.0,-11.09,-13.49,36.48,0
414,0.032,4256.0,-3312.0,17128.0,-10.63,-13.71,0.0,-10.84,-13.38,36.46,0
415,0.032,4316.0,-2984.0,17416.0,-9.44,-13.73,0.0,-10.68,-13.27,36.42,0
416,0.032,4096.0,-3304.0,16992.0,-10.7,-13.31,0.0,-10.65,-13.1,36.5,0
417,0.032,4384.0,-3288.0,18028.0,-10.05,-13.45,0.0,-10.6,-13.05,36.54,0
418,0.032999996,4340.0,-3112.0,17136.0,-9.98,-13.99,0.0,-10.55,-13.09,36.59,0
419,0.031,4260.0,-3112.0,16996.0,-10.07,-13.85,0.0,-10.62,-13.08,36.53,0
420,0.032,4252.0,-3428.0,17424.0,-10.82,-13.47,0.0,-10.63,-13.05,36.53,0
421,0.032999996,4152.0,-3504.0,17424.0,-11.07,-13.15,0.0,-10.63,-12.95,36.48,0
422,0.032,4336.0,-3524.0,17708.0,-10.94,-13.5,0.0,-10.69,-12.95,36.43,0
423,0.032,4160.0,-3156.0,17848.0,-9.77,-12.93,0.0,-10.76,-12.89,36.39,0
424,0.032,4184.0,-3304.0,17416.0,-10.45,-13.28,0.0,-10.81,-12.91,36.32,0
425,0.032999996,4116.0,-3292.0,17480.0,-10.39,-13.03,0.0,-10.77,-12.95,36.22,0
426,0.032,4044.0,-3132.0,17376.0,-9.96,-12.9,0.0,-10.75,-13.02,36.18,0
427,0.031,4284.0,-3296.0,17456.0,-10.39,-13.56,0.0,-10.78,-13.08,36.13,0
428,0.032999996,4276.0,-3132.0,17368.0,-9.93,-13.62,0.0,-10.73,-13.16,36.07,0
429,0.032,4188.0,-3480.0,17272.0,-11.08,-13.37,0.0,-10.82,-13.18,36.02,0
430,0.032999996,4220.0,-3200.0,17548.0,-10.05,-13.31,0.0,-10.85,-13.26,35.99,0
431,0.032,4308.0,-3528.0,17140.0,-11.29,-13.83,0.0,-10.83,-13.3,35.98,0
432,0.031,4396.0,-3248.0,17632.0,-10.13,-13.78,0.0,-10.71,-13.35,35.94,0
433,0.032999996,4472.0,-3336.0,17148.0,-10.66,-14.36,0.0,-10.51,-13.4,35.93,0
434,0.032,4340.0,-3252.0,17588.0,-10.18,-13.64,0.0,-10.39,-13.39,35.93,0
435,0.032999996,4300.0,-3100.0,17408.0,-9.81,-13.67,0.0,-10.31,-13.44,35.93,0
436,0.031,4296.0,-3348.0,17204.0,-10.69,-13.77,0.0,-10.22,-13.42,35.93,0
437,0.032999996,4328.0,-3000.0,17664.0,-9.37,-13.58,0.0,-10.07,-13.43,35.89,0
438,0.032,4460.0,-3088.0,17764.0,-9.57,-13.89,0.0,-10.12,-13.4,35.94,0
439,0.032,4476.0,-2908.0,16896.0,-9.45,-14.63,0.0,-10.27,-13.49,36.09,0
440,0.031,4384.0,-3500.0,17648.0,-10.89,-13.69,0.0,-10.2,-13.6,35.99,0
441,0.032999996,4564.0,-3324.0,17896.0,-10.2,-14.08,0.0,-10.11,-13.73,36.04,0
442,0.032,4376.0,-3096.0,17908.0,-9.53,-13.54,0.0,-9.69,-13.96,36.17,0
443,0.032,9764.0,-832.0,5948.0,-4.16,-58.4,0.0,-5.82,-16.33,36.67,0
444,0.031,4300.0,-1736.0,16964.0,-5.67,-14.15,0.0,-4.85,-16.42,36.63,0
445,0.032,4564.0,-2020.0,16908.0,-6.58,-15.0,0.0,-4.57,-16.43,36.45,0
446,0.032,4620.0,-2156.0,17340.0,-6.85,-14.81,0.0,-4.62,-16.31,36.33,0
447,0.032,4744.0,-2052.0,17648.0,-6.41,-14.95,0.0,-4.54,-16.27,36.35,0
448,0.031,4712.0,-2224.0,17148.0,-7.13,-15.24,0.0,-4.54,-16.18,36.35,0
449,0.032,4636.0,-2196.0,17788.0,-6.81,-14.5,0.0,-4.43,-16.03,36.36,0
450,0.032,4668.0,-1960.0,17804.0,-6.08,-14.61,0.0,-4.03,-15.9,36.53,0
451,0.031,4672.0,-2020.0,17304.0,-6.43,-15.01,0.0,-3.61,-15.78,36.59,0
452,0.032,4440.0,-1672.0,17924.0,-5.17,-13.86,0.0,-3.28,-15.65,36.62,0
453,0.032,4352.0,-1136.0,17776.0,-3.55,-13.73,0.0,-2.62,-15.51,37.01,0
454,0.032,4580.0,-2024.0,18160.0,-6.17,-14.07,0.0,-1.96,-15.42,37.35,0
455,0.029999997,4404.0,-812.0,17380.0,-2.59,-14.2,0.0,-1.18,-15.34,37.75,0
456,0.032,4484.0,-776.0,17428.0,-2.47,-14.41,0.0,-0.69,-15.14,38.61,0
457,0.032,4432.0,-772.0,17872.0,-2.4,-13.92,0.0,0.1,-15.1,39.68,0
458,0.031,4376.0,-1616.0,16872.0,-5.3,-14.48,0.0,0.53,-15.18,40.31,0
459,0.031,4568.0,-576.0,17500.0,-1.82,-14.62,0.0,0.95,-15.3,40.8,0
460,0.032,4424.0,-984.0,17792.0,-3.07,-13.94,0.0,1.36,-15.23,41.33,0
461,0.031,4544.0,-536.0,17660.0,-1.68,-14.42,0.0,1.85,-15.22,41.65,0
462,0.032,4660.0,-560.0,18008.0,-1.72,-14.5,0.0,2.41,-15.24,41.92,0
463,0.029999997,4524.0,-268.0,17352.0,-0.86,-14.61,0.0,2.61,-15.21,42.1,0
464,0.031,4612.0,-80.0,17612.0,-0.25,-14.67,0.0,2.76,-15.1,42.31,0
465,0.032,4564.0,48.0,17516.0,0.15,-14.6,0.0,2.61,-14.87,42.44,0
466,0.028999997,4336.0,164.0,17696.0,0.52,-13.77,0.0,2.51,-14.65,42.64,0
467,0.031,4276.0,-248.0,17320.0,-0.8,-13.87,0.0,2.55,-14.39,42.82,0
468,0.032,4260.0,-96.0,18016.0,-0.3,-13.3,0.0,2.33,-14.0,42.91,0
469,0.031,4396.0,-444.0,17932.0,-1.38,-13.77,0.0,2.23,-13.65,42.95,0
470,0.031,4512.0,-552.0,17816.0,-1.72,-14.21,0.0,1.81,-12.94,43.05,0
471,0.031,3764.0,-288.0,17932.0,-0.9,-11.85,0.0,0.03,-11.57,42.89,0
472,0.031,3332.0,-1264.0,18312.0,-3.89,-10.29,0.0,-0.85,-10.2,42.86,0
473,0.032,2812.0,-1428.0,18660.0,-4.33,-8.55,0.0,-2.31,-8.9,42.72,0
474,0.031,2560.0,-1540.0,18472.0,-4.72,-7.86,0.0,-3.05,-7.87,42.56,0
475,0.031,2112.0,-944.0,18952.0,-2.83,-6.35,0.0,-3.12,-7.13,42.52,0
476,0.032,2220.0,-1464.0,17696.0,-4.69,-7.13,0.0,-3.11,-6.54,42.52,0
477,0.031,1976.0,-1112.0,18532.0,-3.41,-6.08,0.0,-3.0,-5.97,42.43,0
478,0.031,1804.0,-1040.0,18396.0,-3.22,-5.59,0.0,-2.87,-5.58,42.4,0
479,0.031,1776.0,-1252.0,18540.0,-3.85,-5.46,0.0,-2.7,-5.25,42.38,0
480,0.031,1684.0,-876.0,18060.0,-2.76,-5.32,0.0,-2.17,-4.92,42.25,0
481,0.031,1620.0,-776.0,18412.0,-2.4,-5.02,0.0,-1.76,-4.74,42.18,0
482,0.031,1652.0,-544.0,18236.0,-1.7,-5.17,0.0,-1.35,-4.67,42.12,0
483,0.031,1596.0,-584.0,17872.0,-1.86,-5.1,0.0,-1.2,-4.57,42.13,0
484,0.031,1740.0,-552.0,18980.0,-1.66,-5.24,0.0,-1.04,-4.57,42.02,0
485,0.031,1472.0,-680.0,18384.0,-2.11,-4.57,0.0,-0.93,-4.42,42.0,0
486,0.031,1416.0,-308.0,18420.0,-0.96,-4.4,0.0,-0.88,-4.29,41.96,0
487,0.031,1564.0,-704.0,18248.0,-2.2,-4.9,0.0,-0.86,-4.23,41.93,0
488,0.031,1568.0,-436.0,18016.0,-1.38,-4.97,0.0,-0.81,-4.16,41.91,0
489,0.029999997,1308.0,-116.0,18300.0,-0.36,-4.09,0.0,-0.77,-4.1,41.89,0
490,0.032,1336.0,-352.0,17864.0,-1.13,-4.28,0.0,-0.76,-4.05,41.91,0
491,0.031,1428.0,-372.0,18372.0,-1.16,-4.44,0.0,-0.83,-4.07,41.89,0
492,0.029999997,1388.0,-624.0,18152.0,-1.96,-4.37,0.0,-0.89,-4.08,41.88,0
493,0.031,1412.0,-532.0,18328.0,-1.66,-4.4,0.0,-0.74,-4.07,41.83,0
494,0.031,1372.0,-440.0,18052.0,-1.39,-4.34,0.0,-0.72,-4.07,41.81,0
495,0.032,1376.0,-268.0,18076.0,-0.85,-4.35,0.0,-0.85,-4.06,41.73,0
496,0.029999997,1224.0,-312.0,18304.0,-0.97,-3.83,0.0,-0.84,-4.05,41.7,0
497,0.031,1584.0,-576.0,18092.0,-1.82,-5.0,0.0,-0.77,-4.09,41.67,0
498,0.031,1288.0,-276.0,18152.0,-0.87,-4.06,0.0,-0.82,-4.05,41.68,0
499,0.031,1400.0,-396.0,18364.0,-1.23,-4.36,0.0,-0.88,-4.07,41.69,0
500,0.031,1408.0,-600.0,18432.0,-1.86,-4.37,0.0,-0.87,-4.09,41.68,0
501,0.031,1412.0,-264.0,18140.0,-0.83,-4.45,0.0,-0.77,-4.14,41.62,0
502,0.031,1308.0,-60.0,18052.0,-0.19,-4.14,0.0,-0.87,-4.24,41.61,0
503,0.029999997,1564.0,-872.0,18408.0,-2.7,-4.85,0.0,-0.86,-4.22,41.61,0
504,0.031,1200.0,-12.0,18144.0,-0.04,-3.78,0.0,-0.86,-4.21,41.62,0
505,0.031,1316.0,-556.0,18148.0,-1.75,-4.15,0.0,-0.89,-4.22,41.64,0
506,0.032,1324.0,-412.0,18468.0,-1.27,-4.1,0.0,-0.92,-4.22,41.63,0
507,0.029999997,1384.0,-360.0,18236.0,-1.13,-4.34,0.0,-0.91,-4.21,41.63,0
508,0.031,1344.0,-376.0,18024.0,-1.19,-4.26,0.0,-0.89,-4.19,41.59,0
509,0.031,1336.0,-200.0,18044.0,-0.63,-4.23,0.0,-0.87,-4.14,41.59,0
510,0.029999997,1284.0,-352.0,18372.0,-1.09,-4.0,0.0,-0.84,-4.13,41.59,0
511,0.032,1428.0,-380.0,18228.0,-1.19,-4.48,0.0,-0.79,-4.1,41.54,0
512,0.031,1244.0,-80.0,17972.0,-0.25,-3.96,0.0,-0.79,-4.1,41.55,0
513,0.031,1424.0,-388.0,18292.0,-1.21,-4.45,0.0,-0.96,-4.09,41.54,0
514,0.029999997,1328.0,-364.0,18308.0,-1.14,-4.15,0.0,-0.93,-4.09,41.51,0
515,0.031,1452.0,-216.0,18132.0,-0.68,-4.58,0.0,-0.84,-4.09,41.46,0
516,0.031,1364.0,-300.0,18136.0,-0.95,-4.3,0.0,-0.76,-4.06,41.45,0
517,0.032,1256.0,-244.0,18076.0,-0.77,-3.97,0.0,-0.68,-4.01,41.42,0
518,0.029999997,1340.0,-100.0,18152.0,-0.31,-4.22,0.0,-0.66,-4.01,41.4,0
519,0.031,1300.0,-424.0,18240.0,-1.33,-4.08,0.0,-0.64,-3.93,41.38,0
520,0.031,1316.0,-148.0,18120.0,-0.47,-4.15,0.0,-0.55,-3.88,41.36,0
521,0.029999997,1324.0,-276.0,18244.0,-0.86,-4.15,0.0,-0.57,-3.78,41.31,0
522,0.032,1228.0,-300.0,18172.0,-0.94,-3.87,0.0,-0.5,-3.68,41.26,0
523,0.031,1256.0,48.0,18120.0,0.15,-3.97,0.0,-0.51,-3.54,41.21,0
524,0.029999997,1184.0,-168.0,18588.0,-0.52,-3.64,0.0,-0.52,-3.4,41.13,0
525,0.031,1176.0,-184.0,18244.0,-0.58,-3.69,0.0,-0.33,-3.31,41.1,0
526,0.031,1048.0,16.0,18216.0,0.05,-3.29,0.0,-0.1,-3.19,41.02,0
527,0.029999997,1040.0,92.0,18180.0,0.29,-3.27,0.0,0.1,-3.08,41.0,0
528,0.028999997,1076.0,-372.0,17856.0,-1.19,-3.45,0.0,0.34,-3.02,40.92,0
529,0.031,984.0,248.0,18404.0,0.77,-3.06,0.0,0.58,-2.93,40.9,0
530,0.031,1052.0,44.0,17852.0,0.14,-3.37,0.0,0.76,-2.86,40.9,0
531,0.029999997,1128.0,8.0,18416.0,0.02,-3.51,0.0,0.87,-2.69,40.83,0
532,0.028999997,848.0,348.0,18320.0,1.09,-2.65,0.0,1.06,-2.57,40.76,0
533,0.029999997,904.0,224.0,18060.0,0.71,-2.87,0.0,1.15,-2.45,40.73,0
534,0.029999997,1012.0,224.0,17872.0,0.72,-3.24,0.0,1.22,-2.27,40.71,0
535,0.029999997,1248.0,148.0,19284.0,0.44,-3.7,0.0,1.33,-2.4,40.64,0
536,0.029999997,520.0,676.0,18380.0,2.11,-1.62,0.0,1.5,-2.18,40.57,0
537,0.029999997,756.0,520.0,18044.0,1.65,-2.4,0.0,1.6,-1.98,40.6,0
538,0.028999997,548.0,580.0,18208.0,1.82,-1.72,0.0,1.76,-1.78,40.61,0
539,0.031,604.0,568.0,18112.0,1.8,-1.91,0.0,1.83,-1.54,40.67,0
540,0.029999997,348.0,628.0,18212.0,1.97,-1.09,0.0,1.79,-1.28,40.7,0
541,0.029999997,252.0,544.0,18464.0,1.69,-0.78,0.0,1.83,-1.03,40.7,0
542,0.028999997,360.0,660.0,18060.0,2.09,-1.14,0.0,1.81,-0.69,40.75,0
543,0.029999997,180.0,692.0,18588.0,2.13,-0.55,0.0,1.86,-0.51,40.72,0
544,0.031,320.0,412.0,18016.0,1.31,-1.02,0.0,1.94,-0.35,40.65,0
545,0.028999997,68.0,940.0,18244.0,2.95,-0.21,0.0,1.92,-0.19,40.63,0
546,0.029999997,256.0,460.0,18320.0,1.44,-0.8,0.0,1.91,-0.12,40.6,0
547,0.029999997,112.0,712.0,18472.0,2.21,-0.35,0.0,1.9,-0.07,40.58,0
548,0.028999997,72.0,656.0,18208.0,2.06,-0.23,0.0,1.99,-0.1,40.61,0
549,0.029999997,80.0,652.0,18212.0,2.05,-0.25,0.0,1.83,-0.12,40.62,0
550,0.029999997,0.0,528.0,18436.0,1.64,0.0,0.0,1.62,-0.18,40.65,0
551,0.029999997,292.0,388.0,18156.0,1.22,-0.92,0.0,1.56,-0.25,40.64,0
552,0.028999997,216.0,548.0,18312.0,1.71,-0.68,0.0,1.63,-0.3,40.6,0
553,0.029999997,300.0,608.0,17884.0,1.95,-0.96,0.0,1.65,-0.38,40.61,0
554,0.029999997,148.0,616.0,18396.0,1.92,-0.46,0.0,1.65,-0.4,40.62,0
555,0.028999997,328.0,536.0,18104.0,1.7,-1.04,0.0,1.74,-0.46,40.64,0
556,0.031,348.0,572.0,18176.0,1.8,-1.1,0.0,1.76,-0.47,40.64,0
557,0.029999997,136.0,860.0,18148.0,2.71,-0.43,0.0,1.77,-0.46,40.66,0
558,0.028999997,244.0,424.0,18244.0,1.33,-0.77,0.0,1.7,-0.45,40.68,0
559,0.029999997,128.0,516.0,18376.0,1.61,-0.4,0.0,1.58,-0.42,40.66,0
560,0.029999997,252.0,528.0,18232.0,1.66,-0.79,0.0,1.43,-0.44,40.71,0
561,0.031,208.0,260.0,18224.0,0.82,-0.65,0.0,1.36,-0.42,40.7,0
562,0.028999997,172.0,492.0,18020.0,1.56,-0.55,0.0,1.32,-0.42,40.69,0
563,0.029999997,240.0,488.0,18308.0,1.53,-0.75,0.0,1.22,-0.41,40.66,0
564,0.029999997,188.0,360.0,18204.0,1.13,-0.59,0.0,1.09,-0.42,40.68,0
565,0.028999997,208.0,180.0,18248.0,0.57,-0.65,0.0,0.89,-0.41,40.66,0
566,0.031,140.0,296.0,18436.0,0.92,-0.44,0.0,0.88,-0.39,40.65,0
567,0.029999997,208.0,500.0,17892.0,1.6,-0.67,0.0,0.85,-0.39,40.65,0
568,0.028999997,132.0,352.0,17976.0,1.12,-0.42,0.0,0.79,-0.36,40.65,0
569,0.029999997,144.0,216.0,18460.0,0.67,-0.45,0.0,0.78,-0.37,40.65,0
570,0.029999997,288.0,268.0,17884.0,0.86,-0.92,0.0,0.74,-0.41,40.65,0
571,0.031,124.0,264.0,18412.0,0.82,-0.39,0.0,0.61,-0.4,40.62,0
572,0.028999997,212.0,156.0,18176.0,0.49,-0.67,0.0,0.58,-0.41,40.62,0
573,0.029999997,212.0,240.0,18316.0,0.75,-0.66,0.0,0.59,-0.42,40.64,0
574,0.029999997,336.0,160.0,18180.0,0.5,-1.06,0.0,0.56,-0.47,40.65,0
575,0.028999997,48.0,240.0,18152.0,0.76,-0.15,0.0,0.45,-0.46,40.63,0
576,0.029999997,312.0,4.0,18420.0,0.01,-0.97,0.0,0.44,-0.5,40.64,0
577,0.029999997,168.0,220.0,18104.0,0.7,-0.53,0.0,0.41,-0.49,40.6,0
578,0.028999997,208.0,216.0,18244.0,0.68,-0.65,0.0,0.37,-0.48,40.6,0
579,0.029999997,224.0,124.0,18204.0,0.39,-0.7,0.0,0.4,-0.48,40.61,0
580,0.031,48.0,364.0,18116.0,1.15,-0.15,0.0,0.45,-0.48,40.61,0
581,0.028999997,308.0,116.0,18152.0,0.37,-0.97,0.0,0.34,-0.5,40.6,0
582,0.029999997,192.0,48.0,18484.0,0.15,-0.6,0.0,0.3,-0.5,40.6,0
583,0.029999997,208.0,40.0,18028.0,0.13,-0.66,0.0,0.28,-0.48,40.58,0
584,0.029999997,180.0,220.0,18404.0,0.68,-0.56,0.0,0.3,-0.49,40.59,0
585,0.028999997,164.0,40.0,18060.0,0.13,-0.52,0.0,0.22,-0.47,40.58,0
586,0.029999997,96.0,84.0,18376.0,0.26,-0.3,0.0,0.14,-0.46,40.55,0
587,0.028999997,244.0,-24.0,18104.0,-0.08,-0.77,0.0,-0.0,-0.43,40.54,0
588,0.029999997,136.0,156.0,18168.0,0.49,-0.43,0.0,-0.05,-0.41,40.53,0
589,0.031,124.0,24.0,17876.0,0.08,-0.4,0.0,-0.08,-0.4,40.52,0
590,0.029999997,68.0,-136.0,18368.0,-0.42,-0.21,0.0,-0.08,-0.36,40.53,0
591,0.029999997,148.0,-132.0,18264.0,-0.41,-0.46,0.0,-0.11,-0.32,40.52,0
592,0.029999997,28.0,72.0,18360.0,0.22,-0.09,0.0,-0.18,-0.29,40.51,0
593,0.029999997,176.0,-180.0,18116.0,-0.57,-0.56,0.0,-0.27,-0.27,40.5,0
594,0.031,168.0,8.0,18536.0,0.02,-0.52,0.0,-0.19,-0.23,40.46,0
595,0.028999997,204.0,56.0,17880.0,0.18,-0.65,0.0,-0.23,-0.21,40.44,0
596,0.029999997,64.0,-388.0,17912.0,-1.24,-0.2,0.0,-0.43,-0.14,40.43,0
597,0.031,160.0,-140.0,18304.0,-0.44,-0.5,0.0,-0.46,-0.1,40.37,0
598,0.031,80.0,-216.0,17916.0,-0.69,-0.26,0.0,-0.6,-0.03,40.33,0
599,0.029999997,108.0,-48.0,18260.0,-0.15,-0.34,0.0,-0.52,0.04,40.32,0
600,0.029999997,116.0,52.0,17916.0,0.17,-0.37,0.0,-0.4,0.11,40.33,0
601,0.029999997,-148.0,44.0,18056.0,0.14,0.47,0.0,-0.32,0.2,40.33,0
602,0.028999997,-76.0,-28.0,18168.0,-0.09,0.24,0.0,-0.18,0.22,40.38,0
603,0.029999997,-88.0,72.0,18032.0,0.23,0.28,0.0,-0.01,0.28,40.43,0
604,0.029999997,-28.0,16.0,18120.0,0.05,0.09,0.0,0.15,0.37,40.49,0
605,0.028999997,-48.0,276.0,17920.0,0.88,0.15,0.0,0.4,0.46,40.56,0
606,0.028999997,-268.0,92.0,18048.0,0.29,0.85,0.0,0.51,0.62,40.62,0
607,0.029999997,-228.0,264.0,18532.0,0.82,0.7,0.0,0.56,0.8,40.72,0
608,0.028999997,-224.0,412.0,17476.0,1.35,0.73,0.0,0.62,0.98,40.81,0
609,0.029999997,-164.0,224.0,18012.0,0.71,0.52,0.0,0.52,1.11,40.87,0
610,0.029999997,-228.0,92.0,18512.0,0.28,0.71,0.0,0.48,1.23,40.92,0
611,0.028999997,-324.0,76.0,18180.0,0.24,1.02,0.0,0.51,1.33,40.95,0
612,0.028999997,-280.0,-168.0,18460.0,-0.52,0.87,0.0,0.55,1.39,40.93,0
613,0.031,-316.0,176.0,18024.0,0.56,1.0,0.0,0.44,1.46,40.89,0
614,0.029999997,-332.0,32.0,18416.0,0.1,1.03,0.0,0.39,1.44,40.86,0
615,0.027999999,-416.0,64.0,18472.0,0.2,1.29,0.0,0.37,1.44,40.86,0
616,0.029999997,-340.0,96.0,18192.0,0.3,1.07,0.0,0.39,1.38,40.84,0
617,0.029999997,-396.0,272.0,18112.0,0.86,1.25,0.0,0.38,1.32,40.83,0
618,0.028999997,-380.0,156.0,18468.0,0.48,1.18,0.0,0.38,1.28,40.83,0
619,0.029999997,-272.0,-20.0,18048.0,-0.06,0.86,0.0,0.41,1.24,40.85,0
620,0.029999997,-300.0,200.0,17964.0,0.64,0.96,0.0,0.3,1.22,40.83,0
621,0.028999997,-420.0,148.0,18496.0,0.46,1.3,0.0,0.2,1.2,40.85,0
622,0.029999997,-340.0,280.0,18252.0,0.88,1.07,0.0,0.15,1.18,40.85,0
623,0.029999997,-344.0,228.0,17948.0,0.73,1.1,0.0,0.11,1.15,40.86,0
624,0.028999997,-264.0,-56.0,18580.0,-0.17,0.81,0.0,0.01,1.12,40.87,0
625,0.029999997,-328.0,-44.0,18300.0,-0.14,1.03,0.0,0.11,1.07,40.88,0
626,0.029999997,-228.0,68.0,18116.0,0.22,0.72,0.0,0.08,1.06,40.86,0
627,0.029999997,-176.0,40.0,18100.0,0.13,0.56,0.0,0.0,1.02,40.87,0
628,0.027999999,-292.0,156.0,18388.0,0.49,0.91,0.0,-0.09,1.05,40.86,0
629,0.029999997,-208.0,24.0,18180.0,0.08,0.66,0.0,0.05,1.03,40.9,0
630,0.029999997,-296.0,268.0,17948.0,0.86,0.94,0.0,0.11,1.05,40.89,0
631,0.028999997,-404.0,16.0,18136.0,0.05,1.28,0.0,0.01,1.07,40.88,0
632,0.029999997,-152.0,-48.0,18200.0,-0.15,0.48,0.0,-0.09,1.06,40.88,0
633,0.029999997,-244.0,-20.0,18280.0,-0.06,0.76,0.0,-0.15,1.06,40.88,0
634,0.031,-268.0,-272.0,18520.0,-0.84,0.83,0.0,-0.16,1.04,40.86,0
635,0.028999997,-192.0,4.0,17844.0,0.01,0.62,0.0,-0.18,1.05,40.85,0
636,0.029999997,-308.0,-312.0,18512.0,-0.97,0.95,0.0,-0.17,1.05,40.82,0
637,0.031,-320.0,-32.0,18148.0,-0.1,1.01,0.0,-0.07,1.07,40.83,0
638,0.028999997,-196.0,-40.0,18092.0,-0.13,0.62,0.0,-0.17,1.06,40.85,0
639,0.031,-364.0,-48.0,18428.0,-0.15,1.13,0.0,-0.11,1.05,40.84,0
640,0.029999997,-420.0,-100.0,18080.0,-0.32,1.33,0.0,-0.06,1.04,40.84,0
641,0.029999997,-228.0,-68.0,18284.0,-0.21,0.71,0.0,-0.07,0.99,40.83,0
642,0.029999997,-324.0,-36.0,18204.0,-0.11,1.02,0.0,-0.13,0.99,40.83,0
643,0.031,-288.0,32.0,17844.0,0.1,0.92,0.0,-0.19,0.97,40.83,0
644,0.029999997,-180.0,-164.0,18352.0,-0.51,0.56,0.0,-0.25,0.91,40.83,0
645,0.028999997,-200.0,12.0,18168.0,0.04,0.63,0.0,-0.39,0.9,40.84,0
646,0.029999997,-136.0,-264.0,18544.0,-0.82,0.42,0.0,-0.47,0.86,40.81,0
647,0.031,-80.0,-268.0,18040.0,-0.85,0.25,0.0,-0.45,0.8,40.79,0
648,0.029999997,-272.0,-180.0,18592.0,-0.55,0.84,0.0,-0.46,0.78,40.77,0
649,0.029999997,-140.0,-220.0,18128.0,-0.7,0.44,0.0,-0.5,0.77,40.77,0
650,0.031,-228.0,-140.0,18244.0,-0.44,0.72,0.0,-0.5,0.75,40.76,0
651,0.031,-152.0,-104.0,18140.0,-0.33,0.48,0.0,-0.51,0.72,40.76,0
652,0.028999997,-256.0,-220.0,18564.0,-0.68,0.79,0.0,-0.54,0.71,40.75,0
653,0.031,-248.0,-92.0,18184.0,-0.29,0.78,0.0,-0.49,0.73,40.74,0
654,0.031,-124.0,-164.0,17972.0,-0.52,0.4,0.0,-0.44,0.7,40.73,0
655,0.028999997,-364.0,-52.0,18256.0,-0.16,1.14,0.0,-0.41,0.71,40.74,0
656,0.031,-164.0,-92.0,18136.0,-0.29,0.52,0.0,-0.44,0.7,40.74,0
657,0.029999997,-260.0,0.0,18152.0,0.0,0.82,0.0,-0.45,0.69,40.72,0
658,0.029999997,-296.0,-48.0,18040.0,-0.15,0.94,0.0,-0.45,0.69,40.72,0
659,0.028999997,-76.0,-128.0,18292.0,-0.4,0.24,0.0,-0.48,0.67,40.73,0
660,0.031,-128.0,-504.0,18288.0,-1.58,0.4,0.0,-0.48,0.65,40.71,0
661,0.029999997,-156.0,-244.0,18308.0,-0.76,0.49,0.0,-0.53,0.64,40.7,0
662,0.029999997,56.0,-232.0,18440.0,-0.72,-0.17,0.0,-0.58,0.6,40.68,0
663,0.031,-164.0,-296.0,18096.0,-0.94,0.52,0.0,-0.53,0.59,40.7,0
664,0.029999997,-212.0,-4.0,18028.0,-0.01,0.67,0.0,-0.44,0.6,40.67,0
665,0.029999997,-40.0,-192.0,18200.0,-0.6,0.13,0.0,-0.48,0.58,40.67,0
666,0.029999997,-192.0,-200.0,18084.0,-0.63,0.61,0.0,-0.55,0.6,40.65,0
667,0.031,-168.0,-188.0,18260.0,-0.59,0.53,0.0,-0.49,0.58,40.64,0
668,0.029999997,-152.0,-76.0,18236.0,-0.24,0.48,0.0,-0.49,0.56,40.64,0
669,0.029999997,-116.0,-196.0,18004.0,-0.62,0.37,0.0,-0.53,0.58,40.61,0
670,0.031,-252.0,-164.0,18356.0,-0.51,0.79,0.0,-0.54,0.57,40.63,0
671,0.029999997,-132.0,-412.0,18088.0,-1.3,0.42,0.0,-0.55,0.53,40.61,0
672,0.029999997,-128.0,-320.0,18244.0,-1.0,0.4,0.0,-0.6,0.54,40.6,0
673,0.031,-128.0,-288.0,18024.0,-0.92,0.41,0.0,-0.61,0.5,40.58,0
674,0.029999997,-124.0,-132.0,18360.0,-0.41,0.39,0.0,-0.58,0.49,40.58,0
675,0.031,-112.0,-156.0,18192.0,-0.49,0.35,0.0,-0.59,0.43,40.56,0
676,0.029999997,-136.0,-160.0,18096.0,-0.51,0.43,0.0,-0.63,0.37,40.55,0
677,0.029999997,44.0,-92.0,18140.0,-0.29,-0.14,0.0,-0.6,0.33,40.54,0
678,0.031,24.0,-128.0,18256.0,-0.4,-0.08,0.0,-0.56,0.28,40.54,0
679,0.028999997,-108.0,-208.0,18224.0,-0.65,0.34,0.0,-0.58,0.28,40.53,0
680,0.031,-180.0,-200.0,18472.0,-0.62,0.56,0.0,-0.57,0.31,40.51,0
681,0.031,64.0,-172.0,18184.0,-0.54,-0.2,0.0,-0.59,0.29,40.52,0
682,0.029999997,-108.0,-276.0,18488.0,-0.86,0.33,0.0,-0.69,0.31,40.5,0
683,0.029999997,24.0,-368.0,18248.0,-1.16,-0.08,0.0,-0.7,0.3,40.5,0
684,0.029999997,-108.0,-76.0,18276.0,-0.24,0.34,0.0,-0.66,0.31,40.47,0
685,0.031,-168.0,-132.0,18332.0,-0.41,0.53,0.0,-0.68,0.3,40.46,0
686,0.028999997,-60.0,-52.0,18184.0,-0.16,0.19,0.0,-0.7,0.31,40.46,0
687,0.031,-168.0,-136.0,18132.0,-0.43,0.53,0.0,-0.77,0.32,40.48,0
688,0.029999997,-28.0,-140.0,18260.0,-0.44,0.09,0.0,-0.78,0.3,40.48,0
689,0.031,-228.0,-212.0,18368.0,-0.66,0.71,0.0,-0.73,0.32,40.46,0
690,0.028999997,84.0,-240.0,18004.0,-0.76,-0.27,0.0,-0.69,0.28,40.44,0
691,0.031,-196.0,-76.0,18148.0,-0.24,0.62,0.0,-0.7,0.28,40.43,0
692,0.029999997,20.0,-128.0,17908.0,-0.41,-0.06,0.0,-0.64,0.25,40.43,0
693,0.029999997,-40.0,-220.0,18128.0,-0.7,0.13,0.0,-0.72,0.25,40.42,0
694,0.029999997,-40.0,-292.0,18236.0,-0.92,0.13,0.0,-0.85,0.22,40.42,0
695,0.031,176.0,144.0,18668.0,0.44,-0.54,0.0,-0.92,0.17,40.36,0
696,0.028999997,-40.0,-264.0,18160.0,-0.83,0.13,0.0,-0.85,0.17,40.34,0
697,0.029999997,44.0,-212.0,18088.0,-0.67,-0.14,0.0,-0.94,0.15,40.34,0
698,0.031,-60.0,-508.0,18224.0,-1.6,0.19,0.0,-0.94,0.17,40.32,0
699,0.029999997,-48.0,-172.0,18180.0,-0.54,0.15,0.0,-0.86,0.17,40.3,0
700,0.029999997,-28.0,-420.0,18432.0,-1.31,0.09,0.0,-0.93,0.18,40.28,0
701,0.029999997,-88.0,-196.0,18380.0,-0.61,0.27,0.0,-0.9,0.17,40.28,0
702,0.031,4.0,-352.0,17980.0,-1.12,-0.01,0.0,-0.9,0.17,40.28,0
703,0.028999997,-32.0,-324.0,18232.0,-1.02,0.1,0.0,-0.82,0.18,40.27,0
704,0.029999997,-88.0,-148.0,18040.0,-0.47,0.28,0.0,-0.8,0.18,40.27,0
705,0.031,-136.0,-236.0,18276.0,-0.74,0.43,0.0,-0.83,0.2,40.26,0
706,0.029999997,24.0,-372.0,18388.0,-1.16,-0.07,0.0,-0.89,0.17,40.26,0
707,0.029999997,-12.0,-424.0,18220.0,-1.33,0.04,0.0,-1.02,0.18,40.26,0
708,0.029999997,-40.0,-412.0,18288.0,-1.29,0.13,0.0,-1.06,0.21,40.23,0
709,0.031,0.0,-192.0,18120.0,-0.61,0.0,0.0,-1.08,0.22,40.22,0
710,0.028999997,-32.0,-456.0,18244.0,-1.43,0.1,0.0,-1.11,0.22,40.21,0
711,0.029999997,-100.0,-404.0,18324.0,-1.26,0.31,0.0,-1.13,0.23,40.2,0
712,0.031,-92.0,-220.0,17968.0,-0.7,0.29,0.0,-1.14,0.24,40.21,0
713,0.028999997,-84.0,-296.0,18296.0,-0.93,0.26,0.0,-1.12,0.21,40.21,0
714,0.031,36.0,-416.0,18468.0,-1.29,-0.11,0.0,-1.05,0.2,40.19,0
715,0.029999997,4.0,-240.0,18112.0,-0.76,-0.01,0.0,-1.11,0.19,40.18,0
716,0.029999997,-12.0,-420.0,18072.0,-1.33,0.04,0.0,-1.26,0.19,40.17,0
717,0.029999997,-72.0,-424.0,18516.0,-1.31,0.22,0.0,-1.35,0.19,40.16,0
718,0.029999997,-12.0,-396.0,18116.0,-1.25,0.04,0.0,-1.32,0.16,40.16,0
719,0.031,-12.0,-404.0,18188.0,-1.27,0.04,0.0,-1.35,0.16,40.14,0
720,0.028999997,0.0,-324.0,18288.0,-1.01,0.0,0.0,-1.39,0.16,40.14,0
721,0.029999997,-172.0,-352.0,18156.0,-1.11,0.54,0.0,-1.41,0.17,40.14,0
722,0.031,64.0,-468.0,18260.0,-1.47,-0.2,0.0,-1.35,0.15,40.11,0
723,0.029999997,-72.0,-372.0,18120.0,-1.18,0.23,0.0,-1.33,0.16,40.08,0
724,0.029999997,-40.0,-252.0,18060.0,-0.8,0.13,0.0,-1.47,0.14,40.09,0
725,0.029999997,88.0,-620.0,18256.0,-1.95,-0.28,0.0,-1.53,0.14,40.09,0
726,0.031,120.0,-260.0,18152.0,-0.82,-0.38,0.0,-1.33,0.12,40.06,0
727,0.028999997,-84.0,-228.0,18124.0,-0.72,0.27,0.0,-1.27,0.11,40.06,0
728,0.031,-12.0,-552.0,18536.0,-1.71,0.04,0.0,-1.38,0.1,40.05,0
729,0.029999997,-32.0,-716.0,18300.0,-2.24,0.1,0.0,-1.42,0.11,40.05,0
730,0.029999997,128.0,-284.0,18092.0,-0.9,-0.41,0.0,-1.33,0.11,40.04,0
731,0.029999997,-108.0,-412.0,18320.0,-1.29,0.34,0.0,-1.31,0.13,40.03,0
732,0.031,-124.0,-388.0,18208.0,-1.22,0.39,0.0,-1.3,0.15,40.04,0
733,0.031,32.0,-504.0,18180.0,-1.59,-0.1,0.0,-1.31,0.14,40.04,0
734,0.028999997,36.0,-380.0,18192.0,-1.2,-0.11,0.0,-1.38,0.15,40.01,0
735,0.031,52.0,-136.0,18108.0,-0.43,-0.16,0.0,-1.38,0.14,40.01,0
736,0.029999997,8.0,-412.0,18108.0,-1.3,-0.03,0.0,-1.4,0.14,40.01,0
737,0.028999997,-8.0,-576.0,18372.0,-1.8,0.02,0.0,-1.4,0.14,40.01,0
738,0.031,-28.0,-456.0,18156.0,-1.44,0.09,0.0,-1.41,0.12,40.01,0
739,0.029999997,-4.0,-528.0,18388.0,-1.64,0.01,0.0,-1.49,0.12,40.01,0
740,0.029999997,-100.0,-492.0,18196.0,-1.55,0.31,0.0,-1.52,0.14,40.0,0
741,0.029999997,-32.0,-624.0,18312.0,-1.95,0.1,0.0,-1.49,0.13,39.98,0
742,0.029999997,-8.0,-536.0,18060.0,-1.7,0.03,0.0,-1.53,0.13,39.98,0
743,0.031,-64.0,-424.0,18256.0,-1.33,0.2,0.0,-1.58,0.15,39.98,0
744,0.028999997,-44.0,-556.0,18044.0,-1.76,0.14,0.0,-1.58,0.16,39.96,0
745,0.031,16.0,-416.0,17936.0,-1.33,-0.05,0.0,-1.52,0.16,39.96,0
746,0.029999997,-32.0,-468.0,18172.0,-1.48,0.1,0.0,-1.51,0.17,39.95,0
747,0.028999997,12.0,-332.0,18244.0,-1.04,-0.04,0.0,-1.51,0.17,39.95,0
748,0.031,-52.0,-444.0,18344.0,-1.39,0.16,0.0,-1.5,0.17,39.91,0
749,0.029999997,56.0,-516.0,18228.0,-1.62,-0.18,0.0,-1.46,0.17,39.9,0
750,0.031,56.0,-304.0,17984.0,-0.97,-0.18,0.0,-1.53,0.15,39.89,0
751,0.028999997,112.0,-692.0,18372.0,-2.16,-0.35,0.0,-1.57,0.14,39.88,0
752,0.031,88.0,-552.0,18356.0,-1.72,-0.27,0.0,-1.54,0.11,39.87,0
753,0.029999997,-80.0,-416.0,18216.0,-1.31,0.25,0.0,-1.58,0.11,39.86,0
754,0.029999997,-20.0,-524.0,18248.0,-1.64,0.06,0.0,-1.58,0.11,39.86,0
755,0.029999997,88.0,-392.0,18224.0,-1.23,-0.28,0.0,-1.52,0.1,39.86,0
756,0.031,-4.0,-544.0,18304.0,-1.7,0.01,0.0,-1.53,0.09,39.85,0
757,0.029999997,-132.0,-540.0,18144.0,-1.7,0.42,0.0,-1.51,0.12,39.85,0
758,0.029999997,-12.0,-360.0,18260.0,-1.13,0.04,0.0,-1.47,0.1,39.83,0
759,0.029999997,-12.0,-284.0,17980.0,-0.9,0.04,0.0,-1.51,0.1,39.83,0
760,0.031,0.0,-664.0,18424.0,-2.06,0.0,0.0,-1.57,0.09,39.82,0
761,0.028999997,8.0,-616.0,18156.0,-1.94,-0.03,0.0,-1.63,0.11,39.81,0
762,0.029999997,48.0,-508.0,18168.0,-1.6,-0.15,0.0,-1.63,0.12,39.8,0
763,0.029999997,-100.0,-504.0,18036.0,-1.6,0.32,0.0,-1.65,0.14,39.79,0
764,0.031,-192.0,-436.0,18264.0,-1.37,0.6,0.0,-1.67,0.19,39.79,0
765,0.029999997,-32.0,-416.0,17920.0,-1.33,0.1,0.0,-1.63,0.19,39.79,0
766,0.029999997,-28.0,-340.0,18192.0,-1.07,0.09,0.0,-1.6,0.18,39.78,0
767,0.031,-44.0,-504.0,18232.0,-1.58,0.14,0.0,-1.62,0.19,39.77,0
768,0.028999997,40.0,-544.0,18280.0,-1.7,-0.13,0.0,-1.64,0.18,39.77,0
769,0.029999997,-8.0,-628.0,18084.0,-1.99,0.03,0.0,-1.66,0.19,39.76,0
770,0.031,12.0,-448.0,18304.0,-1.4,-0.04,0.0,-1.68,0.16,39.76,0
771,0.028999997,16.0,-664.0,18072.0,-2.1,-0.05,0.0,-1.73,0.15,39.76,0
772,0.031,-96.0,-500.0,18104.0,-1.58,0.3,0.0,-1.74,0.16,39.75,0
773,0.029999997,92.0,-384.0,18108.0,-1.21,-0.29,0.0,-1.73,0.13,39.74,0
774,0.029999997,-24.0,-724.0,18384.0,-2.26,0.07,0.0,-1.74,0.11,39.73,0
775,0.029999997,-32.0,-556.0,18188.0,-1.75,0.1,0.0,-1.77,0.12,39.71,0
776,0.029999997,24.0,-536.0,18176.0,-1.69,-0.08,0.0,-1.79,0.11,39.7,0
777,0.031,60.0,-536.0,18136.0,-1.69,-0.19,0.0,-1.81,0.1,39.71,0
778,0.028999997,-64.0,-792.0,18048.0,-2.51,0.2,0.0,-1.84,0.11,39.7,0
779,0.031,-44.0,-404.0,18252.0,-1.27,0.14,0.0,-1.85,0.1,39.68,0
780,0.029999997,-12.0,-344.0,18100.0,-1.09,0.04,0.0,-1.9,0.1,39.67,0
781,0.031,-8.0,-676.0,18312.0,-2.11,0.03,0.0,-1.85,0.09,39.64,0
782,0.028999997,44.0,-456.0,18312.0,-1.43,-0.14,0.0,-1.81,0.09,39.64,0
783,0.029999997,4.0,-648.0,18172.0,-2.04,-0.01,0.0,-1.79,0.08,39.65,0
784,0.029999997,0.0,-644.0,18172.0,-2.03,0.0,0.0,-1.71,0.08,39.65,0
785,0.028999997,-92.0,-436.0,18052.0,-1.38,0.29,0.0,-1.7,0.09,39.65,0
786,0.031,16.0,-608.0,18104.0,-1.92,-0.05,0.0,-1.8,0.08,39.64,0
787,0.029999997,136.0,-708.0,18296.0,-2.22,-0.43,0.0,-1.81,0.08,39.64,0
788,0.029999997,16.0,-608.0,18052.0,-1.93,-0.05,0.0,-1.79,0.08,39.63,0
789,0.029999997,12.0,-580.0,18220.0,-1.82,-0.04,0.0,-1.85,0.1,39.63,0
790,0.031,-8.0,-676.0,18136.0,-2.13,0.03,0.0,-1.81,0.12,39.62,0
791,0.029999997,-40.0,-532.0,18152.0,-1.68,0.13,0.0,-1.77,0.13,39.61,0
792,0.029999997,80.0,-472.0,18184.0,-1.49,-0.25,0.0,-1.8,0.11,39.6,0
793,0.029999997,136.0,-656.0,18208.0,-2.06,-0.43,0.0,-1.81,0.09,39.6,0
794,0.031,172.0,-532.0,18164.0,-1.68,-0.54,0.0,-1.74,0.09,39.59,0
795,0.028999997,16.0,-644.0,18020.0,-2.05,-0.05,0.0,-1.78,0.09,39.6,0
796,0.031,-84.0,-568.0,18428.0,-1.77,0.26,0.0,-1.82,0.09,39.59,0
797,0.029999997,-8.0,-628.0,18204.0,-1.98,0.03,0.0,-1.85,0.1,39.58,0
798,0.031,-16.0,-596.0,18192.0,-1.88,0.05,0.0,-1.82,0.1,39.57,0
799,0.028999997,92.0,-408.0,18036.0,-1.3,-0.29,0.0,-1.78,0.09,39.56,0
800,0.029999997,36.0,-580.0,18092.0,-1.84,-0.11,0.0,-1.84,0.07,39.54,0
801,0.031,-12.0,-668.0,18264.0,-2.09,0.04,0.0,-1.86,0.06,39.54,0
802,0.028999997,-80.0,-660.0,18056.0,-2.09,0.25,0.0,-1.87,0.08,39.53,0
803,0.031,-48.0,-528.0,18164.0,-1.67,0.15,0.0,-1.87,0.08,39.53,0
804,0.029999997,-40.0,-632.0,18052.0,-2.01,0.13,0.0,-1.87,0.1,39.54,0
805,0.029999997,-48.0,-732.0,18228.0,-2.3,0.15,0.0,-1.9,0.09,39.52,0
806,0.029999997,-12.0,-380.0,18348.0,-1.19,0.04,0.0,-1.91,0.08,39.51,0
807,0.031,76.0,-636.0,18200.0,-2.0,-0.24,0.0,-1.89,0.07,39.5,0
808,0.029999997,-16.0,-592.0,18188.0,-1.86,0.05,0.0,-1.91,0.09,39.49,0
809,0.029999997,20.0,-720.0,18032.0,-2.29,-0.06,0.0,-1.95,0.08,39.48,0
810,0.029999997,72.0,-696.0,18416.0,-2.16,-0.22,0.0,-1.91,0.07,39.47,0
811,0.029999997,76.0,-528.0,18164.0,-1.67,-0.24,0.0,-1.81,0.07,39.49,0
812,0.029999997,24.0,-436.0,18152.0,-1.38,-0.08,0.0,-1.77,0.07,39.48,0
813,0.029999997,-92.0,-456.0,18176.0,-1.44,0.29,0.0,-1.72,0.07,39.49,0
814,0.031,-68.0,-500.0,18092.0,-1.58,0.22,0.0,-1.71,0.07,39.5,0
815,0.029999997,20.0,-696.0,18336.0,-2.17,-0.06,0.0,-1.75,0.08,39.49,0
816,0.029999997,28.0,-460.0,18028.0,-1.46,-0.09,0.0,-1.77,0.08,39.47,0
817,0.029999997,32.0,-496.0,18424.0,-1.54,-0.1,0.0,-1.82,0.09,39.46,0
818,0.031,36.0,-548.0,18196.0,-1.73,-0.11,0.0,-1.75,0.11,39.44,0
819,0.028999997,136.0,-400.0,18216.0,-1.26,-0.43,0.0,-1.76,0.08,39.43,0
820,0.031,16.0,-696.0,18216.0,-2.19,-0.05,0.0,-1.9,0.06,39.42,0
821,0.029999997,148.0,-716.0,18080.0,-2.27,-0.47,0.0,-1.92,0.06,39.42,0
822,0.029999997,8.0,-564.0,18232.0,-1.77,-0.03,0.0,-1.86,0.06,39.4,0
823,0.029999997,-12.0,-604.0,18208.0,-1.9,0.04,0.0,-1.86,0.06,39.4,0
824,0.031,-40.0,-764.0,18196.0,-2.4,0.13,0.0,-1.88,0.07,39.4,0
825,0.029999997,64.0,-644.0,17976.0,-2.05,-0.2,0.0,-1.9,0.07,39.39,0
826,0.028999997,-48.0,-512.0,18160.0,-1.61,0.15,0.0,-1.91,0.08,39.37,0
827,0.031,-16.0,-700.0,18480.0,-2.17,0.05,0.0,-1.91,0.07,39.37,0
828,0.029999997,96.0,-704.0,18104.0,-2.23,-0.3,0.0,-1.81,0.07,39.36,0
829,0.029999997,-100.0,-448.0,18328.0,-1.4,0.31,0.0,-1.84,0.09,39.36,0
830,0.031,196.0,-600.0,18012.0,-1.91,-0.62,0.0,-1.88,0.04,39.35,0
831,0.029999997,-28.0,-700.0,18372.0,-2.18,0.09,0.0,-1.87,0.06,39.33,0
832,0.031,40.0,-380.0,17940.0,-1.21,-0.13,0.0,-1.75,0.06,39.33,0
833,0.028999997,-128.0,-480.0,18364.0,-1.5,0.4,0.0,-1.84,0.06,39.32,0
834,0.031,52.0,-844.0,18136.0,-2.66,-0.16,0.0,-1.88,0.06,39.32,0
835,0.029999997,56.0,-452.0,18020.0,-1.44,-0.18,0.0,-1.81,0.08,39.31,0
836,0.029999997,12.0,-492.0,18128.0,-1.55,-0.04,0.0,-1.77,0.07,39.28,0
837,0.029999997,-36.0,-524.0,18368.0,-1.63,0.11,0.0,-1.83,0.08,39.29,0
838,0.031,84.0,-564.0,18028.0,-1.79,-0.27,0.0,-1.79,0.09,39.28,0
839,0.029999997,44.0,-520.0,18264.0,-1.63,-0.14,0.0,-1.72,0.1,39.28,0
840,0.029999997,-16.0,-432.0,18224.0,-1.36,0.05,0.0,-1.77,0.09,39.29,0
841,0.029999997,60.0,-760.0,18220.0,-2.39,-0.19,0.0,-1.82,0.07,39.3,0
842,0.031,12.0,-672.0,18192.0,-2.12,-0.04,0.0,-1.79,0.07,39.28,0
843,0.028999997,28.0,-468.0,17952.0,-1.49,-0.09,0.0,-1.82,0.06,39.29,0
844,0.029999997,56.0,-808.0,18256.0,-2.53,-0.18,0.0,-1.88,0.07,39.28,0
845,0.031,-136.0,-568.0,18268.0,-1.78,0.43,0.0,-1.82,0.13,39.25,0
846,0.029999997,20.0,-552.0,18196.0,-1.74,-0.06,0.0,-1.86,0.13,39.23,0
847,0.029999997,-76.0,-732.0,18288.0,-2.29,0.24,0.0,-1.88,0.15,39.23,0
848,0.029999997,-4.0,-596.0,18200.0,-1.88,0.01,0.0,-1.86,0.15,39.23,0
849,0.031,-60.0,-576.0,18092.0,-1.82,0.19,0.0,-1.87,0.16,39.24,0
850,0.028999997,-32.0,-560.0,18148.0,-1.77,0.1,0.0,-1.96,0.16,39.22,0
851,0.031,-140.0,-640.0,18308.0,-2.0,0.44,0.0,-1.9,0.19,39.22,0
852,0.029999997,76.0,-452.0,17892.0,-1.45,-0.24,0.0,-1.78,0.17,39.21,0
853,0.029999997,-16.0,-448.0,18224.0,-1.41,0.05,0.0,-1.81,0.15,39.19,0
854,0.029999997,12.0,-496.0,18040.0,-1.57,-0.04,0.0,-1.83,0.15,39.2,0
855,0.031,20.0,-648.0,18368.0,-2.02,-0.06,0.0,-1.72,0.14,39.19,0
856,0.029999997,84.0,-540.0,18044.0,-1.71,-0.27,0.0,-1.68,0.12,39.18,0
857,0.029999997,-60.0,-480.0,18292.0,-1.5,0.19,0.0,-1.65,0.12,39.18,0
858,0.029999997,48.0,-572.0,18252.0,-1.8,-0.15,0.0,-1.59,0.11,39.17,0
859,0.029999997,-136.0,-296.0,18276.0,-0.93,0.43,0.0,-1.45,0.11,39.18,0
860,0.029999997,-160.0,-284.0,17800.0,-0.91,0.51,0.0,-1.52,0.13,39.18,0
861,0.031,-56.0,-676.0,18320.0,-2.11,0.18,0.0,-1.47,0.11,39.18,0
862,0.029999997,112.0,-504.0,18068.0,-1.6,-0.36,0.0,-1.36,0.09,39.17,0
863,0.031,28.0,-376.0,18264.0,-1.18,-0.09,0.0,-1.38,0.09,39.15,0
864,0.028999997,-12.0,-568.0,18288.0,-1.78,0.04,0.0,-1.34,0.1,39.14,0
865,0.031,28.0,-516.0,18196.0,-1.62,-0.09,0.0,-1.3,0.1,39.13,0
866,0.029999997,-32.0,-336.0,18124.0,-1.06,0.1,0.0,-1.31,0.1,39.13,0
867,0.029999997,20.0,-304.0,18308.0,-0.95,-0.06,0.0,-1.25,0.1,39.12,0
868,0.029999997,172.0,-532.0,18084.0,-1.68,-0.54,0.0,-1.07,0.07,39.13,0
869,0.031,-108.0,-148.0,18320.0,-0.46,0.34,0.0,-1.04,0.08,39.11,0
870,0.029999997,-52.0,-604.0,18060.0,-1.92,0.16,0.0,-1.06,0.09,39.13,0
871,0.029999997,64.0,-272.0,18020.0,-0.86,-0.2,0.0,-1.02,0.11,39.12,0
872,0.031,48.0,-180.0,18008.0,-0.57,-0.15,0.0,-0.97,0.12,39.09,0
873,0.029999997,88.0,-296.0,18200.0,-0.93,-0.28,0.0,-0.96,0.09,39.08,0
874,0.029999997,60.0,-368.0,18232.0,-1.16,-0.19,0.0,-0.93,0.1,39.06,0
875,0.029999997,-52.0,-324.0,18120.0,-1.02,0.16,0.0,-0.89,0.12,39.05,0
876,0.029999997,-24.0,-272.0,18124.0,-0.86,0.08,0.0,-0.88,0.1,39.04,0
877,0.029999997,56.0,-332.0,18420.0,-1.03,-0.17,0.0,-0.89,0.08,39.04,0
878,0.029999997,20.0,-256.0,18184.0,-0.81,-0.06,0.0,-0.76,0.09,39.03,0
879,0.031,-172.0,-84.0,17856.0,-0.27,0.55,0.0,-0.75,0.12,39.03,0
880,0.029999997,20.0,-240.0,18044.0,-0.76,-0.06,0.0,-0.65,0.09,39.01,0
881,0.029999997,96.0,-236.0,18404.0,-0.73,-0.3,0.0,-0.38,0.05,39.03,0
882,0.029999997,100.0,-28.0,18148.0,-0.09,-0.32,0.0,-0.39,0.04,39.04,0
883,0.031,-12.0,-52.0,18016.0,-0.17,0.04,0.0,-0.3,0.02,39.03,0
884,0.028999997,56.0,-212.0,18316.0,-0.66,-0.18,0.0,-0.24,-0.02,39.05,0
885,0.031,20.0,-36.0,17996.0,-0.11,-0.06,0.0,-0.14,-0.07,39.04,0
886,0.029999997,64.0,-176.0,18332.0,-0.55,-0.2,0.0,0.16,-0.13,39.01,0
887,0.028999997,16.0,112.0,18064.0,0.36,-0.05,0.0,0.21,-0.14,39.01,0
888,0.029999997,128.0,-8.0,18136.0,-0.03,-0.4,0.0,0.22,-0.18,39.0,0
889,0.031,-16.0,12.0,18192.0,0.04,0.05,0.0,0.2,-0.17,38.99,0
890,0.028999997,136.0,-124.0,18332.0,-0.39,-0.43,0.0,0.15,-0.18,38.98,0
891,0.029999997,24.0,76.0,18112.0,0.24,-0.08,0.0,0.3,-0.17,38.97,0
892,0.029999997,12.0,60.0,18208.0,0.19,-0.04,0.0,0.36,-0.17,38.98,0
893,0.028999997,-84.0,356.0,18144.0,1.12,0.27,0.0,0.42,-0.13,39.0,0
894,0.028999997,144.0,132.0,18124.0,0.42,-0.46,0.0,0.61,-0.15,39.02,0
895,0.029999997,32.0,268.0,18232.0,0.84,-0.1,0.0,0.52,-0.14,39.0,0
896,0.029999997,144.0,16.0,18160.0,0.05,-0.45,0.0,0.56,-0.16,39.0,0
897,0.028999997,-36.0,176.0,18264.0,0.55,0.11,0.0,0.75,-0.17,38.99,0
898,0.029999997,124.0,220.0,18136.0,0.69,-0.39,0.0,0.7,-0.17,38.98,0
899,0.031,100.0,188.0,18468.0,0.58,-0.31,0.0,0.68,-0.18,38.97,0
900,0.029999997,112.0,256.0,18452.0,0.79,-0.35,0.0,0.64,-0.17,38.96,0
901,0.028999997,184.0,224.0,18524.0,0.69,-0.57,0.0,0.74,-0.18,38.95,0
902,0.029999997,132.0,48.0,18204.0,0.15,-0.42,0.0,0.89,-0.19,38.94,0
903,0.029999997,184.0,372.0,18500.0,1.15,-0.57,0.0,0.93,-0.24,38.93,0
904,0.028999997,76.0,84.0,18080.0,0.27,-0.24,0.0,0.83,-0.24,38.94,0
905,0.029999997,220.0,160.0,18480.0,0.5,-0.68,0.0,0.89,-0.26,38.92,0
906,0.029999997,76.0,396.0,18136.0,1.25,-0.24,0.0,0.82,-0.25,38.93,0
907,0.028999997,76.0,372.0,18300.0,1.16,-0.24,0.0,0.79,-0.23,38.94,0
908,0.029999997,156.0,316.0,18088.0,1.0,-0.49,0.0,0.91,-0.27,38.93,0
909,0.029999997,124.0,232.0,18124.0,0.73,-0.39,0.0,0.9,-0.29,38.91,0
910,0.029999997,84.0,244.0,18308.0,0.76,-0.26,0.0,0.83,-0.28,38.89,0
911,0.028999997,184.0,184.0,18204.0,0.58,-0.58,0.0,0.83,-0.3,38.88,0
912,0.031,96.0,288.0,18416.0,0.9,-0.3,0.0,0.8,-0.3,38.87,0
913,0.029999997,84.0,276.0,18372.0,0.86,-0.26,0.0,0.79,-0.32,38.87,0
914,0.027999999,224.0,292.0,18508.0,0.9,-0.69,0.0,0.79,-0.32,38.85,0
915,0.031,184.0,272.0,18216.0,0.86,-0.58,0.0,0.86,-0.35,38.83,0
916,0.029999997,140.0,212.0,18136.0,0.67,-0.44,0.0,0.82,-0.35,38.81,0
917,0.028999997,-12.0,200.0,18352.0,0.62,0.04,0.0,0.76,-0.36,38.8,0
918,0.029999997,124.0,472.0,17836.0,1.52,-0.4,0.0,0.74,-0.33,38.8,0
919,0.029999997,156.0,120.0,18428.0,0.37,-0.49,0.0,0.66,-0.32,38.79,0
920,0.028999997,172.0,276.0,18180.0,0.87,-0.54,0.0,0.68,-0.31,38.79,0
921,0.031,132.0,296.0,18100.0,0.94,-0.42,0.0,0.73,-0.33,38.78,0
922,0.029999997,180.0,264.0,17940.0,0.84,-0.57,0.0,0.74,-0.35,38.78,0
923,0.029999997,60.0,248.0,18136.0,0.78,-0.19,0.0,0.74,-0.34,38.78,0
924,0.028999997,168.0,260.0,18296.0,0.81,-0.53,0.0,0.74,-0.36,38.78,0
925,0.029999997,124.0,256.0,18080.0,0.81,-0.39,0.0,0.77,-0.34,38.78,0
926,0.029999997,128.0,464.0,18320.0,1.45,-0.4,0.0,0.8,-0.34,38.78,0
927,0.029999997,116.0,76.0,18136.0,0.24,-0.37,0.0,0.74,-0.35,38.78,0
928,0.029999997,32.0,268.0,18184.0,0.84,-0.1,0.0,0.74,-0.31,38.74,0
929,0.028999997,92.0,372.0,17952.0,1.19,-0.29,0.0,0.88,-0.33,38.72,0
930,0.028999997,144.0,416.0,18252.0,1.31,-0.45,0.0,0.87,-0.32,38.72,0
931,0.031,92.0,228.0,18356.0,0.71,-0.29,0.0,0.81,-0.33,38.72,0
932,0.029999997,208.0,248.0,18284.0,0.78,-0.65,0.0,0.91,-0.36,38.72,0
933,0.029999997,120.0,296.0,18264.0,0.93,-0.38,0.0,0.98,-0.37,38.73,0
934,0.028999997,156.0,200.0,18220.0,0.63,-0.49,0.0,0.86,-0.38,38.72,0
935,0.029999997,88.0,276.0,18464.0,0.86,-0.27,0.0,0.86,-0.36,38.73,0
936,0.029999997,120.0,388.0,17864.0,1.24,-0.38,0.0,0.86,-0.35,38.71,0
937,0.028999997,232.0,224.0,18432.0,0.7,-0.72,0.0,0.84,-0.36,38.72,0
938,0.029999997,248.0,228.0,18168.0,0.72,-0.78,0.0,0.94,-0.37,38.71,0
939,0.031,72.0,444.0,18292.0,1.39,-0.23,0.0,0.89,-0.36,38.71,0
940,0.028999997,220.0,140.0,18112.0,0.44,-0.7,0.0,0.91,-0.39,38.71,0
941,0.029999997,120.0,432.0,18244.0,1.36,-0.38,0.0,0.9,-0.39,38.7,0
942,0.029999997,112.0,332.0,18432.0,1.03,-0.35,0.0,0.99,-0.39,38.71,0
943,0.029999997,312.0,380.0,17944.0,1.21,-1.0,0.0,1.1,-0.41,38.69,0
944,0.028999997,124.0,464.0,18248.0,1.46,-0.39,0.0,1.26,-0.44,38.66,0
945,0.031,156.0,368.0,18232.0,1.16,-0.49,0.0,1.29,-0.44,38.66,0
946,0.029999997,92.0,468.0,18176.0,1.47,-0.29,0.0,1.32,-0.43,38.67,0
947,0.028999997,112.0,508.0,18332.0,1.59,-0.35,0.0,1.39,-0.44,38.68,0
948,0.029999997,248.0,212.0,18204.0,0.67,-0.78,0.0,1.42,-0.45,38.69,0
949,0.029999997,292.0,320.0,18396.0,1.0,-0.91,0.0,1.48,-0.47,38.67,0
950,0.028999997,120.0,660.0,18136.0,2.08,-0.38,0.0,1.5,-0.47,38.69,0
951,0.031,176.0,448.0,18248.0,1.41,-0.55,0.0,1.41,-0.48,38.68,0
952,0.029999997,164.0,392.0,18144.0,1.24,-0.52,0.0,1.41,-0.47,38.66,0
953,0.029999997,160.0,644.0,18264.0,2.02,-0.5,0.0,1.57,-0.47,38.65,0
954,0.028999997,184.0,432.0,17996.0,1.38,-0.59,0.0,1.65,-0.45,38.63,0
955,0.029999997,84.0,504.0,18512.0,1.56,-0.26,0.0,1.58,-0.46,38.62,0
956,0.029999997,188.0,552.0,17936.0,1.76,-0.6,0.0,1.41,-0.45,38.62,0
957,0.029999997,172.0,420.0,18408.0,1.31,-0.54,0.0,1.44,-0.45,38.61,0
958,0.029999997,220.0,544.0,18228.0,1.71,-0.69,0.0,1.61,-0.45,38.59,0
959,0.029999997,80.0,628.0,18144.0,1.98,-0.25,0.0,1.54,-0.44,38.6,0
960,0.028999997,224.0,408.0,18296.0,1.28,-0.7,0.0,1.46,-0.48,38.6,0
961,0.029999997,296.0,244.0,18300.0,0.76,-0.93,0.0,1.57,-0.49,38.58,0
962,0.029999997,60.0,576.0,18188.0,1.81,-0.19,0.0,1.6,-0.48,38.58,0
963,0.029999997,148.0,424.0,18384.0,1.32,-0.46,0.0,1.51,-0.47,38.58,0
964,0.028999997,196.0,504.0,18336.0,1.57,-0.61,0.0,1.44,-0.46,38.57,0
965,0.031,172.0,552.0,18336.0,1.72,-0.54,0.0,1.46,-0.45,38.54,0
966,0.029999997,72.0,636.0,18224.0,2.0,-0.23,0.0,1.58,-0.45,38.54,0
967,0.028999997,112.0,380.0,18272.0,1.19,-0.35,0.0,1.53,-0.44,38.53,0
968,0.029999997,180.0,444.0,18204.0,1.4,-0.57,0.0,1.53,-0.44,38.52,0
969,0.029999997,188.0,664.0,18224.0,2.09,-0.59,0.0,1.51,-0.45,38.51,0
970,0.028999997,304.0,248.0,18104.0,0.78,-0.96,0.0,1.48,-0.45,38.49,0
971,0.031,96.0,524.0,18180.0,1.65,-0.3,0.0,1.61,-0.43,38.48,0
972,0.028999997,200.0,488.0,18172.0,1.54,-0.63,0.0,1.66,-0.43,38.46,0
973,0.031,56.0,688.0,18100.0,2.18,-0.18,0.0,1.56,-0.43,38.45,0
974,0.028999997,272.0,376.0,18208.0,1.18,-0.86,0.0,1.55,-0.46,38.45,0
975,0.029999997,252.0,368.0,18228.0,1.16,-0.79,0.0,1.63,-0.44,38.43,0
976,0.029999997,136.0,676.0,18100.0,2.14,-0.43,0.0,1.71,-0.43,38.43,0
977,0.028999997,132.0,720.0,18264.0,2.26,-0.41,0.0,1.67,-0.44,38.42,0
978,0.029999997,120.0,580.0,18072.0,1.84,-0.38,0.0,1.52,-0.42,38.45,0
979,0.031,384.0,424.0,18148.0,1.34,-1.21,0.0,1.5,-0.43,38.42,0
980,0.028999997,180.0,588.0,18128.0,1.86,-0.57,0.0,1.42,-0.4,38.42,0
981,0.029999997,-76.0,348.0,18384.0,1.08,0.24,0.0,1.24,-0.34,38.42,0
982,0.029999997,188.0,336.0,18216.0,1.06,-0.59,0.0,1.14,-0.31,38.39,0
983,0.029999997,80.0,560.0,18252.0,1.76,-0.25,0.0,0.94,-0.27,38.38,0
984,0.028999997,108.0,284.0,18244.0,0.89,-0.34,0.0,0.75,-0.25,38.37,0
985,0.029999997,144.0,248.0,18484.0,0.77,-0.45,0.0,0.69,-0.22,38.36,0
986,0.031,36.0,280.0,18128.0,0.88,-0.11,0.0,0.62,-0.18,38.33,0
987,0.027999999,12.0,364.0,18180.0,1.15,-0.04,0.0,0.48,-0.17,38.35,0
988,0.029999997,156.0,168.0,18324.0,0.53,-0.49,0.0,0.27,-0.16,38.33,0
989,0.031,44.0,216.0,18344.0,0.67,-0.14,0.0,0.2,-0.13,38.32,0
990,0.028999997,-12.0,-44.0,18156.0,-0.14,0.04,0.0,-0.01,-0.1,38.31,0
991,0.029999997,-76.0,4.0,18464.0,0.01,0.24,0.0,-0.34,-0.05,38.29,0
992,0.029999997,240.0,-260.0,17968.0,-0.83,-0.77,0.0,-0.47,-0.05,38.28,0
993,0.031,72.0,24.0,18276.0,0.08,-0.23,0.0,-0.47,-0.04,38.25,0
994,0.028999997,24.0,-148.0,18300.0,-0.46,-0.08,0.0,-0.48,-0.04,38.25,0
995,0.029999997,-52.0,-72.0,18324.0,-0.23,0.16,0.0,-0.53,-0.03,38.24,0
996,0.031,96.0,-200.0,18052.0,-0.63,-0.3,0.0,-0.48,-0.05,38.21,0
997,0.028999997,68.0,-80.0,18312.0,-0.25,-0.21,0.0,-0.48,-0.05,38.22,0
998,0.031,148.0,-136.0,18216.0,-0.43,-0.47,0.0,-0.39,-0.07,38.19,0
999,0.031,124.0,-48.0,18232.0,-0.15,-0.39,0.0,-0.46,-0.07,38.19,0
1000,0.031,92.0,-8.0,18180.0,-0.03,-0.29,0.0,-0.68,-0.08,38.18,0
1001,0.028999997,-4.0,-352.0,18508.0,-1.09,0.01,0.0,-0.69,-0.07,38.18,0
1002,0.029999997,116.0,-124.0,18224.0,-0.39,-0.36,0.0,-0.58,-0.09,38.17,0
1003,0.031,108.0,4.0,18192.0,0.01,-0.34,0.0,-0.59,-0.11,38.15,0
1004,0.028999997,116.0,-420.0,18000.0,-1.34,-0.37,0.0,-0.63,-0.11,38.16,0
1005,0.031,128.0,16.0,18260.0,0.05,-0.4,0.0,-0.55,-0.1,38.15,0
1006,0.029999997,88.0,4.0,18148.0,0.01,-0.28,0.0,-0.54,-0.1,38.15,0
1007,0.028999997,-32.0,-208.0,18344.0,-0.65,0.1,0.0,-0.57,-0.09,38.12,0
1008,0.031,184.0,-192.0,18120.0,-0.61,-0.58,0.0,-0.62,-0.1,38.12,0
1009,0.031,12.0,-248.0,18436.0,-0.77,-0.04,0.0,-0.63,-0.09,38.11,0
1010,0.029999997,148.0,-128.0,18108.0,-0.4,-0.47,0.0,-0.57,-0.11,38.12,0
1011,0.029999997,-16.0,-108.0,18276.0,-0.34,0.05,0.0,-0.48,-0.11,38.1,0
1012,0.031,52.0,-4.0,18284.0,-0.01,-0.16,0.0,-0.4,-0.11,38.08,0
1013,0.029999997,24.0,-108.0,18172.0,-0.34,-0.08,0.0,-0.41,-0.11,38.08,0
1014,0.029999997,128.0,-136.0,18396.0,-0.42,-0.4,0.0,-0.34,-0.14,38.09,0
1015,0.031,120.0,-88.0,18168.0,-0.28,-0.38,0.0,-0.39,-0.14,38.1,0
1016,0.031,44.0,-204.0,17876.0,-0.65,-0.14,0.0,-0.42,-0.14,38.09,0
1017,0.029999997,64.0,-108.0,18164.0,-0.34,-0.2,0.0,-0.45,-0.15,38.07,0
1018,0.029999997,84.0,-104.0,18308.0,-0.33,-0.26,0.0,-0.42,-0.15,38.06,0
1019,0.031,144.0,-40.0,18184.0,-0.13,-0.45,0.0,-0.43,-0.17,38.05,0
1020,0.029999997,144.0,16.0,18440.0,0.05,-0.45,0.0,-0.4,-0.17,38.03,0
1021,0.029999997,140.0,16.0,18040.0,0.05,-0.44,0.0,-0.41,-0.21,38.02,0
1022,0.029999997,132.0,-176.0,18192.0,-0.55,-0.42,0.0,-0.46,-0.22,38.01,0
1023,0.031,72.0,-204.0,18280.0,-0.64,-0.23,0.0,-0.44,-0.22,38.0,0
1024,0.031,104.0,-4.0,18176.0,-0.01,-0.33,0.0,-0.36,-0.23,38.0,0
1025,0.028999997,108.0,-96.0,17876.0,-0.31,-0.35,0.0,-0.3,-0.23,37.98,0
1026,0.031,72.0,44.0,18152.0,0.14,-0.23,0.0,-0.24,-0.24,37.97,0
1027,0.029999997,92.0,-128.0,18156.0,-0.4,-0.29,0.0,-0.23,-0.26,37.96,0
1028,0.028999997,80.0,8.0,18272.0,0.03,-0.25,0.0,-0.23,-0.28,37.95,0
1029,0.029999997,224.0,-36.0,17964.0,-0.11,-0.71,0.0,-0.26,-0.29,37.97,0
1030,0.031,196.0,-28.0,18304.0,-0.09,-0.61,0.0,-0.26,-0.31,37.96,0
1031,0.028999997,160.0,-84.0,18224.0,-0.26,-0.5,0.0,-0.29,-0.3,37.93,0
1032,0.031,76.0,-52.0,18368.0,-0.16,-0.24,0.0,-0.26,-0.3,37.92,0
1033,0.031,160.0,-200.0,18360.0,-0.62,-0.5,0.0,-0.29,-0.28,37.9,0
1034,0.031,112.0,12.0,18092.0,0.04,-0.35,0.0,-0.28,-0.3,37.91,0
1035,0.028999997,180.0,-88.0,17940.0,-0.28,-0.57,0.0,-0.32,-0.31,37.91,0
1036,0.029999997,64.0,-264.0,18296.0,-0.83,-0.2,0.0,-0.32,-0.3,37.9,0
1037,0.031,136.0,-88.0,18136.0,-0.28,-0.43,0.0,-0.33,-0.31,37.9,0
1038,0.029999997,92.0,-192.0,18424.0,-0.6,-0.29,0.0,-0.37,-0.31,37.89,0
1039,0.031,88.0,-120.0,18200.0,-0.38,-0.28,0.0,-0.33,-0.3,37.88,0
1040,0.029999997,20.0,24.0,18060.0,0.08,-0.06,0.0,-0.35,-0.3,37.88,0
1041,0.029999997,204.0,-168.0,18252.0,-0.53,-0.64,0.0,-0.32,-0.32,37.87,0
1042,0.029999997,224.0,-36.0,18356.0,-0.11,-0.7,0.0,-0.32,-0.32,37.85,0
1043,0.031,8.0,-120.0,18196.0,-0.38,-0.03,0.0,-0.34,-0.3,37.85,0
1044,0.029999997,248.0,-36.0,18080.0,-0.11,-0.79,0.0,-0.35,-0.33,37.83,0
1045,0.029999997,104.0,-180.0,18292.0,-0.56,-0.33,0.0,-0.37,-0.32,37.83,0
1046,0.031,148.0,-44.0,18052.0,-0.14,-0.47,0.0,-0.3,-0.35,37.81,0
1047,0.031,184.0,16.0,17996.0,0.05,-0.59,0.0,-0.32,-0.38,37.79,0
1048,0.029999997,80.0,-236.0,18388.0,-0.74,-0.25,0.0,-0.33,-0.37,37.78,0
1049,0.029999997,128.0,-228.0,17996.0,-0.73,-0.41,0.0,-0.24,-0.37,37.77,0
1050,0.031,132.0,44.0,18064.0,0.14,-0.42,0.0,-0.25,-0.37,37.74,0
1051,0.029999997,220.0,-288.0,18460.0,-0.89,-0.68,0.0,-0.18,-0.4,37.75,0
1052,0.029999997,24.0,-16.0,18148.0,-0.05,-0.08,0.0,-0.19,-0.39,37.77,0
1053,0.029999997,104.0,-148.0,18128.0,-0.47,-0.33,0.0,-0.29,-0.39,37.78,0
1054,0.031,88.0,-256.0,18316.0,-0.8,-0.28,0.0,-0.27,-0.39,37.76,0
1055,0.031,116.0,-32.0,18260.0,-0.1,-0.36,0.0,-0.2,-0.38,37.74,0
1056,0.029999997,256.0,-172.0,18164.0,-0.54,-0.81,0.0,-0.27,-0.4,37.73,0
1057,0.031,176.0,-136.0,18148.0,-0.43,-0.56,0.0,-0.3,-0.38,37.71,0
1058,0.031,132.0,-16.0,18168.0,-0.05,-0.42,0.0,-0.24,-0.37,37.7,0
1059,0.028999997,156.0,-4.0,18176.0,-0.01,-0.49,0.0,-0.24,-0.37,37.69,0
1060,0.031,176.0,-120.0,18228.0,-0.38,-0.55,0.0,-0.18,-0.37,37.7,0
1061,0.031,120.0,-40.0,18328.0,-0.13,-0.38,0.0,-0.19,-0.36,37.69,0
1062,0.029999997,180.0,48.0,18076.0,0.15,-0.57,0.0,-0.19,-0.37,37.68,0
1063,0.029999997,208.0,-80.0,18060.0,-0.25,-0.66,0.0,-0.14,-0.39,37.67,0
1064,0.029999997,148.0,32.0,18156.0,0.1,-0.47,0.0,-0.15,-0.39,37.66,0
1065,0.029999997,176.0,-64.0,18256.0,-0.2,-0.55,0.0,-0.1,-0.41,37.67,0
1066,0.029999997,180.0,52.0,18124.0,0.16,-0.57,0.0,-0.08,-0.42,37.66,0
1067,0.029999997,152.0,-232.0,18004.0,-0.74,-0.48,0.0,-0.12,-0.4,37.66,0
1068,0.031,108.0,0.0,18316.0,0.0,-0.34,0.0,-0.06,-0.38,37.64,0
1069,0.029999997,240.0,128.0,18064.0,0.41,-0.76,0.0,-0.04,-0.4,37.64,0
1070,0.029999997,120.0,84.0,18204.0,0.26,-0.38,0.0,-0.06,-0.4,37.63,0
1071,0.029999997,196.0,-76.0,18272.0,-0.24,-0.61,0.0,-0.04,-0.43,37.62,0
1072,0.031,192.0,36.0,18196.0,0.11,-0.6,0.0,-0.02,-0.44,37.61,0
1073,0.028999997,212.0,-120.0,18328.0,-0.38,-0.66,0.0,-0.02,-0.46,37.61,0
1074,0.031,164.0,-80.0,18180.0,-0.25,-0.52,0.0,-0.07,-0.44,37.61,0
1075,0.029999997,84.0,-32.0,18228.0,-0.1,-0.26,0.0,-0.11,-0.42,37.61,0
1076,0.029999997,252.0,68.0,18112.0,0.22,-0.8,0.0,-0.1,-0.44,37.58,0
1077,0.029999997,236.0,-60.0,18348.0,-0.19,-0.74,0.0,-0.07,-0.46,37.58,0
1078,0.031,328.0,32.0,18208.0,0.1,-1.03,0.0,-0.0,-0.48,37.58,0
1079,0.029999997,88.0,-8.0,18184.0,-0.03,-0.28,0.0,0.0,-0.48,37.59,0
1080,0.028999997,168.0,-44.0,18224.0,-0.14,-0.53,0.0,-0.04,-0.47,37.59,0
1081,0.031,132.0,-68.0,18332.0,-0.21,-0.41,0.0,-0.03,-0.45,37.58,0
1082,0.029999997,232.0,-8.0,18252.0,-0.03,-0.73,0.0,-0.05,-0.43,37.58,0
1083,0.029999997,240.0,-8.0,18224.0,-0.03,-0.75,0.0,-0.03,-0.43,37.56,0
1084,0.029999997,136.0,-4.0,18168.0,-0.01,-0.43,0.0,-0.09,-0.41,37.56,0
1085,0.031,180.0,-28.0,18148.0,-0.09,-0.57,0.0,-0.1,-0.4,37.54,0
1086,0.029999997,188.0,-80.0,18220.0,-0.25,-0.59,0.0,-0.14,-0.38,37.53,0
1087,0.029999997,152.0,16.0,18184.0,0.05,-0.48,0.0,-0.09,-0.39,37.52,0
1088,0.029999997,204.0,-60.0,18052.0,-0.19,-0.65,0.0,-0.06,-0.39,37.51,0
1089,0.031,80.0,112.0,18224.0,0.35,-0.25,0.0,-0.04,-0.37,37.5,0
1090,0.028999997,-32.0,72.0,18080.0,0.23,0.1,0.0,-0.04,-0.35,37.49,0
1091,0.029999997,128.0,-28.0,18092.0,-0.09,-0.41,0.0,0.01,-0.35,37.48,0
1092,0.031,172.0,196.0,18112.0,0.62,-0.54,0.0,0.01,-0.37,37.47,0
1093,0.028999997,212.0,-8.0,18252.0,-0.03,-0.67,0.0,-0.04,-0.37,37.46,0
1094,0.029999997,92.0,-156.0,18444.0,-0.48,-0.29,0.0,0.0,-0.37,37.46,0
1095,0.031,144.0,32.0,18332.0,0.1,-0.45,0.0,0.08,-0.37,37.45,0
1096,0.029999997,80.0,140.0,18316.0,0.44,-0.25,0.0,0.02,-0.36,37.45,0
1097,0.028999997,156.0,-172.0,18092.0,-0.54,-0.49,0.0,-0.03,-0.36,37.44,0
1098,0.031,172.0,132.0,18212.0,0.42,-0.54,0.0,-0.02,-0.37,37.43,0
1099,0.029999997,200.0,-36.0,17992.0,-0.11,-0.64,0.0,-0.03,-0.38,37.44,0
1100,0.029999997,136.0,-20.0,18404.0,-0.06,-0.42,0.0,-0.07,-0.38,37.41,0
1101,0.029999997,168.0,-72.0,18208.0,-0.23,-0.53,0.0,-0.01,-0.4,37.41,0
1102,0.031,20.0,52.0,18236.0,0.16,-0.06,0.0,0.0,-0.38,37.39,0
1103,0.029999997,156.0,-16.0,18208.0,-0.05,-0.49,0.0,-0.01,-0.38,37.38,0
1104,0.029999997,132.0,-32.0,18208.0,-0.1,-0.42,0.0,0.01,-0.35,37.38,0
1105,0.029999997,160.0,4.0,18148.0,0.01,-0.51,0.0,0.05,-0.34,37.38,0
1106,0.029999997,244.0,20.0,18160.0,0.06,-0.77,0.0,0.08,-0.35,37.38,0
1107,0.028999997,40.0,64.0,18308.0,0.2,-0.13,0.0,0.11,-0.35,37.37,0
1108,0.028999997,228.0,4.0,18120.0,0.01,-0.72,0.0,0.13,-0.37,37.38,0
1109,0.029999997,168.0,108.0,18440.0,0.34,-0.52,0.0,0.1,-0.36,37.37,0
1110,0.028999997,176.0,-76.0,18000.0,-0.24,-0.56,0.0,0.12,-0.35,37.37,0
1111,0.031,176.0,104.0,18176.0,0.33,-0.55,0.0,0.12,-0.35,37.35,0
1112,0.029999997,176.0,-72.0,18160.0,-0.23,-0.56,0.0,0.09,-0.35,37.36,0
1113,0.029999997,164.0,60.0,18356.0,0.19,-0.51,0.0,0.07,-0.35,37.34,0
1114,0.028999997,156.0,-16.0,18136.0,-0.05,-0.49,0.0,0.09,-0.35,37.32,0
1115,0.031,128.0,-80.0,18276.0,-0.25,-0.4,0.0,-0.03,-0.35,37.31,0
1116,0.029999997,172.0,-180.0,18284.0,-0.56,-0.54,0.0,0.01,-0.36,37.31,0
1117,0.029999997,156.0,176.0,18108.0,0.56,-0.49,0.0,0.03,-0.37,37.31,0
1118,0.029999997,144.0,-132.0,18356.0,-0.41,-0.45,0.0,0.03,-0.37,37.29,0
1119,0.031,56.0,64.0,18360.0,0.2,-0.17,0.0,-0.03,-0.36,37.27,0
1120,0.028999997,248.0,-228.0,18432.0,-0.71,-0.77,0.0,-0.05,-0.38,37.26,0
1121,0.031,152.0,12.0,18164.0,0.04,-0.48,0.0,-0.03,-0.38,37.25,0
1122,0.029999997,232.0,48.0,18252.0,0.15,-0.73,0.0,0.0,-0.41,37.25,0
1123,0.029999997,168.0,96.0,18312.0,0.3,-0.53,0.0,0.01,-0.4,37.24,0
1124,0.028999997,276.0,32.0,18136.0,0.1,-0.87,0.0,0.02,-0.41,37.25,0
1125,0.029999997,60.0,160.0,18252.0,0.5,-0.19,0.0,-0.01,-0.41,37.24,0
1126,0.029999997,216.0,-144.0,18468.0,-0.45,-0.67,0.0,-0.03,-0.43,37.25,0
1127,0.029999997,236.0,-40.0,18180.0,-0.13,-0.74,0.0,-0.06,-0.44,37.24,0
1128,0.031,92.0,28.0,18284.0,0.09,-0.29,0.0,-0.05,-0.42,37.24,0
1129,0.029999997,216.0,20.0,18356.0,0.06,-0.67,0.0,-0.03,-0.42,37.23,0
1130,0.029999997,268.0,0.0,18192.0,0.0,-0.84,0.0,-0.05,-0.43,37.24,0
1131,0.028999997,168.0,52.0,18304.0,0.16,-0.53,0.0,-0.04,-0.42,37.23,0
1132,0.029999997,168.0,100.0,18036.0,0.32,-0.53,0.0,0.04,-0.43,37.24,0
1133,0.029999997,96.0,-68.0,18172.0,-0.21,-0.3,0.0,0.05,-0.42,37.22,0
1134,0.029999997,88.0,48.0,18492.0,0.15,-0.27,0.0,0.06,-0.43,37.22,0
1135,0.028999997,248.0,88.0,18064.0,0.28,-0.79,0.0,0.05,-0.45,37.23,0
1136,0.029999997,240.0,-52.0,18244.0,-0.16,-0.75,0.0,0.04,-0.45,37.21,0
1137,0.029999997,312.0,124.0,18152.0,0.39,-0.98,0.0,0.11,-0.45,37.19,0
1138,0.029999997,208.0,36.0,18156.0,0.11,-0.66,0.0,0.1,-0.45,37.19,0
1139,0.029999997,80.0,-52.0,18292.0,-0.16,-0.25,0.0,0.09,-0.44,37.18,0
1140,0.028999997,264.0,144.0,18156.0,0.45,-0.83,0.0,0.05,-0.46,37.18,0
1141,0.029999997,200.0,72.0,18268.0,0.23,-0.63,0.0,0.08,-0.49,37.18,0
1142,0.029999997,244.0,188.0,17876.0,0.6,-0.78,0.0,0.13,-0.5,37.17,0
1143,0.029999997,224.0,96.0,18108.0,0.3,-0.71,0.0,0.09,-0.52,37.16,0
1144,0.028999997,132.0,-100.0,18172.0,-0.32,-0.42,0.0,0.06,-0.51,37.15,0
1145,0.031,208.0,160.0,18040.0,0.51,-0.66,0.0,0.09,-0.52,37.13,0
1146,0.029999997,216.0,-188.0,18220.0,-0.59,-0.68,0.0,0.04,-0.52,37.12,0
1147,0.029999997,140.0,-36.0,18548.0,-0.11,-0.43,0.0,0.05,-0.5,37.13,0
1148,0.029999997,228.0,136.0,18092.0,0.43,-0.72,0.0,0.03,-0.53,37.11,0
1149,0.031,140.0,-52.0,18288.0,-0.16,-0.44,0.0,-0.02,-0.55,37.09,0
1150,0.029999997,316.0,64.0,18136.0,0.2,-1.0,0.0,-0.02,-0.55,37.07,0
1151,0.028999997,220.0,96.0,18128.0,0.3,-0.7,0.0,0.01,-0.56,37.07,0
1152,0.029999997,168.0,0.0,18044.0,0.0,-0.53,0.0,0.01,-0.55,37.06,0
1153,0.029999997,200.0,76.0,18480.0,0.24,-0.62,0.0,-0.0,-0.57,37.05,0
1154,0.028999997,308.0,-12.0,18088.0,-0.04,-0.98,0.0,-0.03,-0.57,37.05,0
1155,0.031,200.0,8.0,18168.0,0.03,-0.63,0.0,0.03,-0.57,37.03,0
1156,0.029999997,160.0,144.0,18168.0,0.45,-0.5,0.0,0.03,-0.56,37.0,0
1157,0.028999997,80.0,-12.0,18452.0,-0.04,-0.25,0.0,-0.01,-0.55,36.99,0
1158,0.029999997,196.0,48.0,18128.0,0.15,-0.62,0.0,0.05,-0.54,36.98,0
1159,0.029999997,236.0,84.0,18244.0,0.26,-0.74,0.0,0.11,-0.56,36.96,0
1160,0.029999997,260.0,-8.0,18332.0,-0.03,-0.81,0.0,0.12,-0.55,36.95,0
1161,0.028999997,192.0,56.0,18024.0,0.18,-0.61,0.0,0.24,-0.55,36.96,0
1162,0.029999997,84.0,296.0,18132.0,0.94,-0.27,0.0,0.21,-0.54,36.95,0
1163,0.029999997,160.0,0.0,18276.0,0.0,-0.5,0.0,0.18,-0.56,36.94,0
1164,0.028999997,340.0,72.0,18120.0,0.23,-1.07,0.0,0.23,-0.56,36.92,0
1165,0.029999997,188.0,160.0,17980.0,0.51,-0.6,0.0,0.28,-0.56,36.91,0
1166,0.029999997,196.0,-28.0,18204.0,-0.09,-0.62,0.0,0.18,-0.55,36.89,0
1167,0.029999997,160.0,-68.0,18220.0,-0.21,-0.5,0.0,0.21,-0.53,36.88,0
1168,0.029999997,200.0,108.0,18136.0,0.34,-0.63,0.0,0.23,-0.53,36.87,0
1169,0.029999997,232.0,60.0,18220.0,0.19,-0.73,0.0,0.1,-0.54,36.87,0
1170,0.028999997,276.0,-124.0,18388.0,-0.39,-0.86,0.0,0.06,-0.54,36.87,0
1171,0.031,112.0,-100.0,18368.0,-0.31,-0.35,0.0,0.14,-0.52,36.87,0
1172,0.031,176.0,-48.0,18412.0,-0.15,-0.55,0.0,0.1,-0.52,36.84,0
1173,0.029999997,224.0,68.0,18228.0,0.21,-0.7,0.0,0.02,-0.54,36.84,0
1174,0.028999997,196.0,-136.0,18304.0,-0.43,-0.61,0.0,-0.0,-0.53,36.82,0
1175,0.031,176.0,128.0,18360.0,0.4,-0.55,0.0,-0.0,-0.51,36.81,0
1176,0.029999997,120.0,160.0,18320.0,0.5,-0.38,0.0,-0.01,-0.49,36.81,0
1177,0.029999997,172.0,4.0,17996.0,0.01,-0.55,0.0,0.05,-0.48,36.8,0
1178,0.029999997,156.0,124.0,18252.0,0.39,-0.49,0.0,0.08,-0.46,36.78,0
1179,0.029999997,104.0,144.0,18192.0,0.45,-0.33,0.0,0.07,-0.46,36.76,0
1180,0.029999997,68.0,92.0,18104.0,0.29,-0.22,0.0,-0.05,-0.46,36.74,0
1181,0.028999997,140.0,-80.0,18084.0,-0.25,-0.44,0.0,-0.01,-0.47,36.74,0
1182,0.031,232.0,300.0,17968.0,0.96,-0.74,0.0,0.1,-0.47,36.72,0
1183,0.029999997,100.0,-108.0,18496.0,-0.33,-0.31,0.0,0.08,-0.47,36.71,0
1184,0.029999997,136.0,-108.0,18192.0,-0.34,-0.43,0.0,-0.01,-0.42,36.71,0
1185,0.031,144.0,112.0,18308.0,0.35,-0.45,0.0,0.02,-0.42,36.69,0
1186,0.029999997,216.0,28.0,17960.0,0.09,-0.69,0.0,0.04,-0.42,36.68,0
1187,0.028999997,120.0,-60.0,18116.0,-0.19,-0.38,0.0,0.01,-0.41,36.68,0
1188,0.029999997,112.0,72.0,18084.0,0.23,-0.35,0.0,-0.01,-0.4,36.67,0
1189,0.029999997,204.0,-76.0,18000.0,-0.24,-0.65,0.0,-0.01,-0.4,36.68,0
1190,0.031,120.0,-4.0,18120.0,-0.01,-0.38,0.0,0.01,-0.4,36.68,0
1191,0.028999997,172.0,-12.0,18156.0,-0.04,-0.54,0.0,0.02,-0.4,36.66,0
1192,0.031,172.0,52.0,18252.0,0.16,-0.54,0.0,-0.0,-0.4,36.65,0
1193,0.029999997,144.0,-60.0,18348.0,-0.19,-0.45,0.0,0.02,-0.38,36.62,0
1194,0.028999997,204.0,-48.0,17968.0,-0.15,-0.65,0.0,0.09,-0.36,36.61,0
1195,0.031,172.0,104.0,18168.0,0.33,-0.54,0.0,0.02,-0.34,36.6,0
1196,0.029999997,120.0,52.0,18068.0,0.16,-0.38,0.0,-0.07,-0.33,36.58,0
1197,0.029999997,232.0,44.0,18096.0,0.14,-0.73,0.0,-0.03,-0.34,36.57,0
1198,0.028999997,148.0,4.0,18172.0,0.01,-0.47,0.0,-0.04,-0.35,36.57,0
1199,0.029999997,116.0,100.0,18292.0,0.31,-0.36,0.0,-0.0,-0.34,36.56,0
1200,0.031,100.0,120.0,18060.0,0.38,-0.32,0.0,0.05,-0.34,36.56,0
1201,0.028999997,120.0,80.0,18088.0,0.25,-0.38,0.0,-0.0,-0.32,36.54,0
1202,0.029999997,76.0,-8.0,18368.0,-0.02,-0.24,0.0,0.01,-0.3,36.53,0
1203,0.029999997,100.0,132.0,18020.0,0.42,-0.32,0.0,0.05,-0.31,36.51,0
1204,0.028999997,52.0,80.0,18056.0,0.25,-0.17,0.0,0.05,-0.28,36.49,0
1205,0.029999997,192.0,4.0,18304.0,0.01,-0.6,0.0,0.03,-0.3,36.49,0
1206,0.029999997,208.0,-140.0,18256.0,-0.44,-0.65,0.0,-0.02,-0.3,36.48,0
1207,0.031,192.0,-88.0,18412.0,-0.27,-0.6,0.0,0.0,-0.31,36.49,0
1208,0.028999997,276.0,8.0,18136.0,0.03,-0.87,0.0,0.03,-0.34,36.46,0
1209,0.029999997,184.0,-36.0,18212.0,-0.11,-0.58,0.0,-0.01,-0.35,36.45,0
1210,0.031,12.0,168.0,18292.0,0.53,-0.04,0.0,-0.01,-0.33,36.42,0
1211,0.028999997,92.0,32.0,18044.0,0.1,-0.29,0.0,-0.0,-0.32,36.43,0
1212,0.029999997,168.0,140.0,18196.0,0.44,-0.53,0.0,0.0,-0.3,36.4,0
1213,0.029999997,172.0,84.0,17920.0,0.27,-0.55,0.0,0.05,-0.33,36.4,0
1214,0.028999997,164.0,-140.0,18356.0,-0.44,-0.51,0.0,0.11,-0.34,36.4,0
1215,0.031,216.0,-60.0,18196.0,-0.19,-0.68,0.0,0.14,-0.34,36.41,0
1216,0.029999997,124.0,188.0,18164.0,0.59,-0.39,0.0,0.13,-0.34,36.38,0
1217,0.029999997,80.0,8.0,18104.0,0.03,-0.25,0.0,0.09,-0.38,36.41,0
1218,0.028999997,304.0,-76.0,18420.0,-0.24,-0.95,0.0,0.08,-0.38,36.41,0
1219,0.029999997,176.0,244.0,18012.0,0.78,-0.56,0.0,0.17,-0.39,36.4,0
1220,0.029999997,84.0,48.0,18404.0,0.15,-0.26,0.0,0.07,-0.38,36.38,0
1221,0.028999997,276.0,-216.0,18544.0,-0.67,-0.85,0.0,0.1,-0.41,36.35,0
1222,0.031,280.0,312.0,17932.0,1.0,-0.89,0.0,0.17,-0.41,36.33,0
1223,0.029999997,32.0,184.0,18076.0,0.58,-0.1,0.0,0.11,-0.41,36.33,0
1224,0.028999997,360.0,-320.0,18324.0,-1.0,-1.13,0.0,0.06,-0.44,36.31,0
1225,0.031,276.0,-68.0,18492.0,-0.21,-0.86,0.0,0.2,-0.47,36.29,0
1226,0.029999997,176.0,136.0,17904.0,0.44,-0.56,0.0,0.14,-0.49,36.29,0
1227,0.029999997,196.0,112.0,18468.0,0.35,-0.61,0.0,0.07,-0.51,36.29,0
1228,0.028999997,184.0,-124.0,18164.0,-0.39,-0.58,0.0,0.09,-0.52,36.28,0
1229,0.031,252.0,8.0,18184.0,0.03,-0.79,0.0,0.07,-0.55,36.28,0
1230,0.029999997,236.0,-228.0,18292.0,-0.71,-0.74,0.0,-0.02,-0.56,36.26,0
1231,0.029999997,124.0,100.0,18272.0,0.31,-0.39,0.0,-0.01,-0.56,36.26,0
1232,0.029999997,224.0,-148.0,18160.0,-0.47,-0.71,0.0,-0.04,-0.55,36.28,0
1233,0.031,112.0,88.0,18172.0,0.28,-0.35,0.0,-0.0,-0.53,36.25,0
1234,0.028999997,160.0,92.0,17936.0,0.29,-0.51,0.0,-0.0,-0.53,36.25,0
1235,0.031,144.0,-8.0,18388.0,-0.02,-0.45,0.0,0.02,-0.55,36.25,0
1236,0.029999997,216.0,-52.0,18120.0,-0.16,-0.68,0.0,0.02,-0.57,36.24,0
1237,0.029999997,312.0,-44.0,18012.0,-0.14,-0.99,0.0,0.02,-0.6,36.22,0
1238,0.029999997,72.0,-32.0,18240.0,-0.1,-0.23,0.0,-0.0,-0.57,36.22,0
1239,0.029999997,228.0,28.0,17976.0,0.09,-0.73,0.0,0.05,-0.58,36.21,0
1240,0.029999997,220.0,96.0,18272.0,0.3,-0.69,0.0,0.09,-0.56,36.19,0
1241,0.028999997,76.0,88.0,18216.0,0.28,-0.24,0.0,0.16,-0.55,36.18,0
1242,0.029999997,168.0,-36.0,18180.0,-0.11,-0.53,0.0,0.02,-0.55,36.19,0
1243,0.029999997,260.0,-44.0,18340.0,-0.14,-0.81,0.0,-0.0,-0.57,36.19,0
1244,0.031,224.0,308.0,17892.0,0.99,-0.72,0.0,0.1,-0.57,36.19,0
1245,0.028999997,176.0,-60.0,18124.0,-0.19,-0.56,0.0,0.09,-0.56,36.19,0
1246,0.029999997,184.0,-20.0,18328.0,-0.06,-0.58,0.0,0.03,-0.56,36.17,0
1247,0.031,140.0,52.0,18280.0,0.16,-0.44,0.0,0.03,-0.55,36.16,0
1248,0.028999997,236.0,-40.0,18448.0,-0.12,-0.73,0.0,0.07,-0.55,36.15,0
1249,0.029999997,280.0,92.0,18348.0,0.29,-0.87,0.0,0.09,-0.56,36.14,0
1250,0.029999997,148.0,172.0,18140.0,0.54,-0.47,0.0,0.06,-0.56,36.14,0
1251,0.028999997,156.0,4.0,18388.0,0.01,-0.49,0.0,0.05,-0.56,36.11,0
1252,0.029999997,316.0,124.0,18272.0,0.39,-0.99,0.0,0.07,-0.59,36.1,0
1253,0.029999997,156.0,164.0,18176.0,0.52,-0.49,0.0,0.03,-0.59,36.08,0
1254,0.031,160.0,32.0,18320.0,0.1,-0.5,0.0,0.05,-0.6,36.06,0
1255,0.028999997,200.0,168.0,18336.0,0.52,-0.62,0.0,0.02,-0.59,36.06,0
1256,0.029999997,208.0,-16.0,18328.0,-0.05,-0.65,0.0,-0.02,-0.59,36.04,0
1257,0.029999997,192.0,132.0,18020.0,0.42,-0.61,0.0,0.05,-0.59,36.05,0
1258,0.029999997,216.0,0.0,18296.0,0.0,-0.68,0.0,0.11,-0.59,36.03,0
1259,0.028999997,208.0,4.0,18032.0,0.01,-0.66,0.0,0.08,-0.6,36.03,0
1260,0.029999997,140.0,76.0,18332.0,0.24,-0.44,0.0,0.02,-0.61,36.02,0
1261,0.028999997,312.0,-208.0,18260.0,-0.65,-0.98,0.0,-0.01,-0.62,36.0,0
1262,0.031,212.0,144.0,18184.0,0.45,-0.67,0.0,0.05,-0.61,36.0,0
1263,0.029999997,192.0,68.0,18016.0,0.22,-0.61,0.0,0.03,-0.61,35.98,0
1264,0.029999997,188.0,-116.0,18220.0,-0.36,-0.59,0.0,0.02,-0.61,35.96,0
1265,0.029999997,244.0,-20.0,18212.0,-0.06,-0.77,0.0,0.07,-0.61,35.95,0
1266,0.029999997,164.0,40.0,18152.0,0.13,-0.52,0.0,0.11,-0.6,35.94,0
1267,0.029999997,200.0,44.0,18140.0,0.14,-0.63,0.0,0.09,-0.59,35.94,0
1268,0.028999997,136.0,4.0,18240.0,0.01,-0.43,0.0,0.08,-0.59,35.94,0
1269,0.029999997,244.0,-16.0,18208.0,-0.05,-0.77,0.0,0.05,-0.59,35.93,0
1270,0.029999997,216.0,168.0,18116.0,0.53,-0.68,0.0,0.1,-0.61,35.93,0
1271,0.028999997,224.0,-188.0,18248.0,-0.59,-0.7,0.0,0.05,-0.6,35.91,0
1272,0.031,164.0,132.0,18172.0,0.42,-0.52,0.0,0.11,-0.59,35.89,0
1273,0.029999997,256.0,-32.0,17872.0,-0.1,-0.82,0.0,0.12,-0.59,35.87,0
1274,0.031,248.0,60.0,18064.0,0.19,-0.79,0.0,0.11,-0.59,35.86,0
1275,0.028999997,156.0,60.0,18288.0,0.19,-0.49,0.0,0.05,-0.59,35.87,0
1276,0.029999997,332.0,-44.0,18112.0,-0.14,-1.05,0.0,0.09,-0.6,35.85,0
1277,0.029999997,152.0,188.0,18128.0,0.59,-0.48,0.0,0.12,-0.6,35.83,0
1278,0.028999997,216.0,56.0,17996.0,0.18,-0.69,0.0,0.06,-0.6,35.84,0
1279,0.029999997,220.0,-60.0,18136.0,-0.19,-0.69,0.0,0.11,-0.6,35.85,0
1280,0.031,188.0,68.0,17952.0,0.22,-0.6,0.0,0.1,-0.6,35.81,0
1281,0.028999997,276.0,-68.0,18116.0,-0.22,-0.87,0.0,0.01,-0.62,35.82,0
1282,0.029999997,280.0,-8.0,18412.0,-0.02,-0.87,0.0,0.0,-0.64,35.82,0
1283,0.029999997,332.0,-180.0,18000.0,-0.57,-1.06,0.0,0.06,-0.65,35.81,0
1284,0.031,120.0,328.0,18316.0,1.03,-0.38,0.0,0.03,-0.64,35.8,0
1285,0.028999997,180.0,-116.0,18172.0,-0.37,-0.57,0.0,-0.01,-0.63,35.81,0
1286,0.031,208.0,-40.0,18324.0,-0.13,-0.65,0.0,0.05,-0.62,35.8,0
1287,0.031,240.0,120.0,18100.0,0.38,-0.76,0.0,0.1,-0.64,35.78,0
1288,0.028999997,52.0,12.0,18304.0,0.04,-0.16,0.0,0.09,-0.63,35.8,0
1289,0.029999997,148.0,-56.0,18460.0,-0.17,-0.46,0.0,0.07,-0.6,35.81,0
1290,0.029999997,216.0,124.0,18416.0,0.39,-0.67,0.0,0.09,-0.6,35.82,0
1291,0.028999997,288.0,-4.0,18092.0,-0.01,-0.91,0.0,0.13,-0.58,35.82,0
1292,0.029999997,240.0,276.0,18428.0,0.86,-0.75,0.0,0.23,-0.58,35.8,0
1293,0.031,344.0,-8.0,18288.0,-0.03,-1.08,0.0,0.2,-0.59,35.82,0
1294,0.029999997,212.0,0.0,18372.0,0.0,-0.66,0.0,0.18,-0.58,35.83,0
1295,0.028999997,276.0,84.0,18060.0,0.27,-0.88,0.0,0.26,-0.58,35.82,0
1296,0.028999997,136.0,112.0,18232.0,0.35,-0.43,0.0,0.23,-0.57,35.8,0
1297,0.031,284.0,-80.0,18084.0,-0.25,-0.9,0.0,0.16,-0.59,35.81,0
1298,0.028999997,244.0,0.0,18172.0,0.0,-0.77,0.0,0.21,-0.58,35.79,0
1299,0.029999997,288.0,116.0,18100.0,0.37,-0.91,0.0,0.26,-0.58,35.78,0
1300,0.029999997,148.0,-56.0,18236.0,-0.18,-0.46,0.0,0.19,-0.55,35.77,0
1301,0.028999997,176.0,-12.0,18276.0,-0.04,-0.55,0.0,0.17,-0.53,35.76,0
1302,0.031,164.0,192.0,18220.0,0.6,-0.52,0.0,0.18,-0.53,35.75,0
1303,0.029999997,244.0,40.0,18204.0,0.13,-0.77,0.0,0.15,-0.53,35.73,0
1304,0.029999997,184.0,-4.0,18472.0,-0.01,-0.57,0.0,0.15,-0.52,35.73,0
1305,0.028999997,120.0,100.0,18052.0,0.32,-0.38,0.0,0.07,-0.51,35.73,0
1306,0.029999997,112.0,-32.0,18188.0,-0.1,-0.35,0.0,0.01,-0.5,35.71,0
1307,0.031,204.0,-4.0,18328.0,-0.01,-0.64,0.0,-0.04,-0.49,35.7,0
1308,0.028999997,180.0,4.0,18376.0,0.01,-0.56,0.0,-0.06,-0.47,35.68,0
1309,0.029999997,40.0,-68.0,18296.0,-0.21,-0.13,0.0,-0.06,-0.45,35.65,0
1310,0.031,296.0,8.0,18272.0,0.03,-0.93,0.0,-0.03,-0.47,35.65,0
1311,0.028999997,228.0,-48.0,18220.0,-0.15,-0.72,0.0,-0.05,-0.48,35.65,0
1312,0.029999997,188.0,92.0,17892.0,0.29,-0.6,0.0,-0.13,-0.47,35.64,0
1313,0.031,188.0,-168.0,18120.0,-0.53,-0.59,0.0,-0.07,-0.47,35.62,0
1314,0.031,180.0,0.0,18192.0,0.0,-0.57,0.0,-0.07,-0.45,35.61,0
1315,0.028999997,136.0,-48.0,18176.0,-0.15,-0.43,0.0,-0.04,-0.46,35.59,0
1316,0.029999997,68.0,64.0,18248.0,0.2,-0.21,0.0,-0.14,-0.44,35.58,0
1317,0.029999997,216.0,-32.0,18348.0,-0.1,-0.67,0.0,-0.17,-0.44,35.57,0
1318,0.029999997,280.0,-16.0,18120.0,-0.05,-0.89,0.0,-0.11,-0.46,35.55,0
1319,0.031,236.0,-56.0,18436.0,-0.17,-0.73,0.0,-0.08,-0.47,35.54,0
1320,0.029999997,124.0,-140.0,18360.0,-0.44,-0.39,0.0,-0.08,-0.46,35.55,0
1321,0.031,76.0,68.0,18164.0,0.21,-0.24,0.0,-0.07,-0.43,35.54,0
1322,0.028999997,164.0,-100.0,18168.0,-0.32,-0.52,0.0,-0.14,-0.44,35.55,0
1323,0.031,260.0,40.0,18300.0,0.13,-0.81,0.0,-0.15,-0.46,35.54,0
1324,0.029999997,332.0,-8.0,18068.0,-0.03,-1.05,0.0,-0.05,-0.46,35.53,0
1325,0.029999997,148.0,188.0,18232.0,0.59,-0.47,0.0,-0.04,-0.44,35.53,0
1326,0.029999997,232.0,12.0,18092.0,0.04,-0.73,0.0,-0.05,-0.45,35.53,0
1327,0.029999997,72.0,68.0,18272.0,0.21,-0.23,0.0,-0.05,-0.44,35.51,0
1328,0.028999997,256.0,-140.0,18184.0,-0.44,-0.81,0.0,-0.03,-0.45,35.52,0
1329,0.031,228.0,72.0,18160.0,0.23,-0.72,0.0,-0.12,-0.44,35.51,0
1330,0.031,280.0,-128.0,18160.0,-0.4,-0.88,0.0,-0.1,-0.48,35.5,0
1331,0.031,144.0,72.0,18140.0,0.23,-0.45,0.0,-0.14,-0.48,35.48,0
1332,0.028999997,244.0,48.0,18260.0,0.15,-0.77,0.0,-0.17,-0.49,35.47,0
1333,0.029999997,204.0,-136.0,18120.0,-0.43,-0.65,0.0,-0.26,-0.49,35.46,0
1334,0.031,40.0,-112.0,18428.0,-0.35,-0.12,0.0,-0.3,-0.48,35.45,0
1335,0.029999997,240.0,-264.0,18484.0,-0.82,-0.74,0.0,-0.32,-0.48,35.44,0
1336,0.031,224.0,4.0,18104.0,0.01,-0.71,0.0,-0.34,-0.48,35.44,0
1337,0.028999997,72.0,-80.0,18396.0,-0.25,-0.22,0.0,-0.36,-0.47,35.43,0
1338,0.031,276.0,-76.0,18336.0,-0.24,-0.86,0.0,-0.36,-0.5,35.43,0
1339,0.029999997,184.0,-4.0,18264.0,-0.01,-0.58,0.0,-0.42,-0.49,35.42,0
1340,0.029999997,184.0,-68.0,18248.0,-0.21,-0.58,0.0,-0.33,-0.52,35.41,0
1341,0.031,256.0,48.0,18264.0,0.15,-0.8,0.0,-0.28,-0.55,35.39,0
1342,0.028999997,116.0,-68.0,18176.0,-0.21,-0.37,0.0,-0.35,-0.55,35.41,0
1343,0.031,224.0,-128.0,18324.0,-0.4,-0.7,0.0,-0.31,-0.55,35.37,0
1344,0.031,240.0,136.0,18224.0,0.43,-0.75,0.0,-0.25,-0.55,35.37,0
1345,0.029999997,260.0,-160.0,18092.0,-0.51,-0.82,0.0,-0.28,-0.55,35.39,0
1346,0.029999997,244.0,-32.0,18128.0,-0.1,-0.77,0.0,-0.25,-0.54,35.38,0
1347,0.031,176.0,44.0,18236.0,0.14,-0.55,0.0,-0.24,-0.54,35.37,0
1348,0.029999997,160.0,-124.0,18328.0,-0.39,-0.5,0.0,-0.29,-0.55,35.37,0
1349,0.029999997,408.0,-256.0,18172.0,-0.81,-1.29,0.0,-0.29,-0.57,35.36,0
1350,0.031,164.0,16.0,18172.0,0.05,-0.52,0.0,-0.25,-0.56,35.33,0
1351,0.029999997,308.0,-16.0,18168.0,-0.05,-0.97,0.0,-0.23,-0.56,35.34,0
1352,0.031,212.0,-64.0,18060.0,-0.2,-0.67,0.0,-0.27,-0.55,35.32,0
1353,0.029999997,172.0,-100.0,18156.0,-0.32,-0.54,0.0,-0.24,-0.55,35.31,0
1354,0.029999997,168.0,4.0,18196.0,0.01,-0.53,0.0,-0.25,-0.56,35.31,0
1355,0.029999997,236.0,-136.0,18300.0,-0.43,-0.74,0.0,-0.27,-0.56,35.3,0
1356,0.029999997,200.0,-148.0,18176.0,-0.47,-0.63,0.0,-0.21,-0.56,35.3,0
1357,0.031,196.0,-32.0,18236.0,-0.1,-0.62,0.0,-0.22,-0.56,35.28,0
1358,0.031,216.0,-148.0,18140.0,-0.47,-0.68,0.0,-0.26,-0.57,35.29,0
1359,0.031,268.0,-40.0,18080.0,-0.13,-0.85,0.0,-0.26,-0.57,35.29,0
1360,0.029999997,212.0,-124.0,18276.0,-0.39,-0.66,0.0,-0.28,-0.57,35.28,0
1361,0.031,156.0,-88.0,18380.0,-0.27,-0.49,0.0,-0.32,-0.58,35.25,0
1362,0.029999997,352.0,-232.0,18184.0,-0.73,-1.11,0.0,-0.37,-0.61,35.24,0
1363,0.029999997,224.0,-148.0,18396.0,-0.46,-0.7,0.0,-0.38,-0.61,35.22,0
1364,0.031,220.0,40.0,18104.0,0.13,-0.7,0.0,-0.39,-0.63,35.21,0
1365,0.031,144.0,-212.0,18280.0,-0.66,-0.45,0.0,-0.46,-0.62,35.2,0
1366,0.029999997,352.0,-204.0,18336.0,-0.64,-1.1,0.0,-0.49,-0.64,35.2,0
1367,0.029999997,192.0,-68.0,18224.0,-0.21,-0.6,0.0,-0.48,-0.63,35.17,0
1368,0.031,228.0,-116.0,18096.0,-0.37,-0.72,0.0,-0.59,-0.63,35.16,0
1369,0.031,216.0,-272.0,18316.0,-0.85,-0.68,0.0,-0.51,-0.62,35.14,0
1370,0.029999997,160.0,-88.0,18188.0,-0.28,-0.5,0.0,-0.49,-0.6,35.12,0
1371,0.031,148.0,-64.0,18196.0,-0.2,-0.47,0.0,-0.52,-0.6,35.13,0
1372,0.029999997,288.0,-312.0,18308.0,-0.98,-0.9,0.0,-0.51,-0.6,35.12,0
1373,0.031,276.0,-172.0,18296.0,-0.54,-0.86,0.0,-0.45,-0.59,35.11,0
1374,0.029999997,224.0,-128.0,18228.0,-0.4,-0.7,0.0,-0.49,-0.6,35.1,0
1375,0.031,276.0,-84.0,18012.0,-0.27,-0.88,0.0,-0.58,-0.61,35.08,0
1376,0.031,220.0,-284.0,18240.0,-0.89,-0.69,0.0,-0.54,-0.59,35.06,0
1377,0.029999997,160.0,8.0,18252.0,0.03,-0.5,0.0,-0.53,-0.58,35.05,0
1378,0.029999997,200.0,-52.0,18356.0,-0.16,-0.62,0.0,-0.66,-0.56,35.03,0
1379,0.031,160.0,-248.0,18444.0,-0.77,-0.5,0.0,-0.63,-0.55,35.03,0
1380,0.031,180.0,-120.0,18212.0,-0.38,-0.57,0.0,-0.6,-0.54,35.02,0
1381,0.029999997,180.0,-196.0,18316.0,-0.61,-0.56,0.0,-0.67,-0.54,35.02,0
1382,0.031,160.0,-248.0,18180.0,-0.78,-0.5,0.0,-0.75,-0.53,35.01,0
1383,0.031,76.0,-200.0,18052.0,-0.63,-0.24,0.0,-0.73,-0.52,35.01,0
1384,0.028999997,208.0,-20.0,18016.0,-0.06,-0.66,0.0,-0.81,-0.52,34.98,0
1385,0.031,208.0,-384.0,18400.0,-1.2,-0.65,0.0,-0.85,-0.53,34.98,0
1386,0.031,168.0,-116.0,18364.0,-0.36,-0.52,0.0,-0.77,-0.53,34.95,0
1387,0.031,236.0,-68.0,18096.0,-0.22,-0.75,0.0,-0.77,-0.53,34.95,0
1388,0.029999997,8.0,-312.0,18280.0,-0.98,-0.03,0.0,-0.9,-0.49,34.93,0
1389,0.029999997,248.0,-444.0,18404.0,-1.38,-0.77,0.0,-0.89,-0.48,34.93,0
1390,0.031,204.0,-188.0,18136.0,-0.59,-0.64,0.0,-0.88,-0.48,34.93,0
1391,0.029999997,128.0,-252.0,18328.0,-0.79,-0.4,0.0,-0.92,-0.46,34.91,0
1392,0.031,56.0,-356.0,18520.0,-1.1,-0.17,0.0,-0.95,-0.43,34.91,0
1393,0.031,348.0,-292.0,18064.0,-0.93,-1.1,0.0,-0.85,-0.45,34.91,0
1394,0.031,4.0,88.0,18368.0,0.27,-0.01,0.0,-0.7,-0.45,34.87,0
1395,0.027999999,168.0,-348.0,18176.0,-1.1,-0.53,0.0,-0.73,-0.45,34.87,0
1396,0.031,188.0,-272.0,18108.0,-0.86,-0.59,0.0,-0.7,-0.45,34.87,0
1397,0.031,304.0,-232.0,18168.0,-0.73,-0.96,0.0,-0.7,-0.45,34.86,0
1398,0.029999997,256.0,-136.0,18260.0,-0.43,-0.8,0.0,-0.61,-0.45,34.86,0
1399,0.031,148.0,-140.0,18252.0,-0.44,-0.46,0.0,-0.68,-0.44,34.87,0
1400,0.031,208.0,-124.0,18300.0,-0.39,-0.65,0.0,-0.63,-0.47,34.88,0
1401,0.031,388.0,-132.0,18148.0,-0.42,-1.22,0.0,-0.59,-0.48,34.86,0
1402,0.029999997,224.0,-208.0,18236.0,-0.65,-0.7,0.0,-0.55,-0.49,34.87,0
1403,0.031,164.0,-152.0,18112.0,-0.48,-0.52,0.0,-0.54,-0.48,34.85,0
1404,0.031,116.0,-252.0,18040.0,-0.8,-0.37,0.0,-0.53,-0.47,34.84,0
1405,0.029999997,188.0,-36.0,18268.0,-0.11,-0.59,0.0,-0.51,-0.46,34.83,0
1406,0.031,244.0,-124.0,18048.0,-0.39,-0.77,0.0,-0.57,-0.47,34.81,0
1407,0.031,164.0,-224.0,18196.0,-0.71,-0.52,0.0,-0.56,-0.47,34.81,0
1408,0.031,224.0,-192.0,18252.0,-0.6,-0.7,0.0,-0.54,-0.47,34.8,0
1409,0.028999997,48.0,-128.0,18200.0,-0.4,-0.15,0.0,-0.6,-0.44,34.8,0
1410,0.031,96.0,-188.0,18236.0,-0.59,-0.3,0.0,-0.53,-0.45,34.79,0
1411,0.031,232.0,-176.0,18232.0,-0.55,-0.73,0.0,-0.47,-0.45,34.79,0
1412,0.029999997,92.0,-52.0,18096.0,-0.16,-0.29,0.0,-0.47,-0.43,34.77,0
1413,0.029999997,128.0,-136.0,18252.0,-0.43,-0.4,0.0,-0.52,-0.42,34.76,0
1414,0.031,196.0,-144.0,18224.0,-0.45,-0.62,0.0,-0.5,-0.42,34.75,0
1415,0.031,196.0,-96.0,18100.0,-0.3,-0.62,0.0,-0.48,-0.42,34.74,0
1416,0.029999997,172.0,-216.0,18264.0,-0.68,-0.54,0.0,-0.54,-0.42,34.73,0
1417,0.031,80.0,-196.0,18184.0,-0.62,-0.25,0.0,-0.54,-0.41,34.72,0
1418,0.031,164.0,-152.0,18264.0,-0.48,-0.51,0.0,-0.49,-0.43,34.7,0
1419,0.031,140.0,-120.0,18296.0,-0.38,-0.44,0.0,-0.5,-0.43,34.7,0
1420,0.029999997,124.0,-220.0,18336.0,-0.69,-0.39,0.0,-0.52,-0.42,34.69,0
1421,0.029999997,176.0,-204.0,18412.0,-0.63,-0.55,0.0,-0.54,-0.4,34.68,0
1422,0.031,116.0,-220.0,18216.0,-0.69,-0.36,0.0,-0.46,-0.39,34.67,0
1423,0.029999997,40.0,-76.0,17944.0,-0.24,-0.13,0.0,-0.52,-0.38,34.67,0
1424,0.031,60.0,-304.0,18248.0,-0.95,-0.19,0.0,-0.49,-0.39,34.67,0
1425,0.031,220.0,0.0,18108.0,0.0,-0.7,0.0,-0.51,-0.4,34.67,0
1426,0.028999997,292.0,-212.0,18400.0,-0.66,-0.91,0.0,-0.54,-0.41,34.67,0
1427,0.029999997,176.0,-96.0,18324.0,-0.3,-0.55,0.0,-0.52,-0.39,34.65,0
1428,0.031,220.0,-84.0,18280.0,-0.26,-0.69,0.0,-0.49,-0.4,34.63,0
1429,0.031,116.0,-92.0,18012.0,-0.29,-0.37,0.0,-0.5,-0.39,34.62,0
1430,0.029999997,120.0,-276.0,18284.0,-0.86,-0.38,0.0,-0.56,-0.38,34.6,0
1431,0.031,124.0,-20.0,18308.0,-0.06,-0.39,0.0,-0.57,-0.39,34.6,0
1432,0.029999997,240.0,-252.0,18116.0,-0.8,-0.76,0.0,-0.56,-0.41,34.6,0
1433,0.029999997,84.0,-172.0,18408.0,-0.54,-0.26,0.0,-0.52,-0.39,34.58,0
1434,0.031,160.0,80.0,18052.0,0.25,-0.51,0.0,-0.49,-0.41,34.56,0
1435,0.029999997,144.0,-368.0,18572.0,-1.14,-0.44,0.0,-0.59,-0.42,34.56,0
1436,0.031,240.0,-248.0,18268.0,-0.78,-0.75,0.0,-0.57,-0.43,34.55,0
1437,0.029999997,188.0,-20.0,18084.0,-0.06,-0.6,0.0,-0.58,-0.44,34.53,0
1438,0.031,36.0,-128.0,18160.0,-0.4,-0.11,0.0,-0.57,-0.45,34.54,0
1439,0.029999997,264.0,-324.0,18364.0,-1.01,-0.82,0.0,-0.53,-0.47,34.54,0
1440,0.029999997,180.0,-104.0,18104.0,-0.33,-0.57,0.0,-0.56,-0.47,34.52,0
1441,0.031,136.0,-168.0,18288.0,-0.53,-0.43,0.0,-0.62,-0.48,34.52,0
1442,0.031,232.0,-304.0,18256.0,-0.95,-0.73,0.0,-0.61,-0.48,34.5,0
1443,0.031,176.0,-100.0,18100.0,-0.32,-0.56,0.0,-0.59,-0.49,34.52,0
1444,0.029999997,180.0,-164.0,17932.0,-0.52,-0.58,0.0,-0.61,-0.49,34.49,0
1445,0.031,184.0,-216.0,18180.0,-0.68,-0.58,0.0,-0.56,-0.52,34.49,0
1446,0.031,312.0,-100.0,18140.0,-0.32,-0.99,0.0,-0.52,-0.53,34.49,0
1447,0.031,280.0,-220.0,18288.0,-0.69,-0.88,0.0,-0.49,-0.54,34.49,0
1448,0.029999997,152.0,-164.0,18136.0,-0.52,-0.48,0.0,-0.56,-0.53,34.48,0
1449,0.031,28.0,-280.0,18192.0,-0.88,-0.09,0.0,-0.62,-0.5,34.48,0
1450,0.031,160.0,-100.0,18264.0,-0.31,-0.5,0.0,-0.59,-0.47,34.48,0
1451,0.029999997,340.0,8.0,18004.0,0.03,-1.08,0.0,-0.53,-0.5,34.48,0
1452,0.029999997,236.0,-64.0,18372.0,-0.2,-0.74,0.0,-0.63,-0.5,34.48,0
1453,0.029999997,268.0,-336.0,18164.0,-1.06,-0.85,0.0,-0.61,-0.5,34.45,0
1454,0.031,76.0,-16.0,18112.0,-0.05,-0.24,0.0,-0.6,-0.47,34.42,0
1455,0.029999997,232.0,-216.0,18424.0,-0.67,-0.72,0.0,-0.62,-0.49,34.43,0
1456,0.031,244.0,-192.0,17964.0,-0.61,-0.78,0.0,-0.66,-0.49,34.4,0
1457,0.031,160.0,-112.0,18308.0,-0.35,-0.5,0.0,-0.67,-0.47,34.4,0
1458,0.029999997,232.0,-324.0,18136.0,-1.02,-0.73,0.0,-0.7,-0.49,34.38,0
1459,0.031,224.0,-172.0,18448.0,-0.53,-0.7,0.0,-0.76,-0.51,34.38,0
1460,0.031,128.0,-332.0,18180.0,-1.05,-0.4,0.0,-0.84,-0.52,34.36,0
1461,0.031,124.0,-320.0,18340.0,-1.0,-0.39,0.0,-0.81,-0.53,34.34,0
1462,0.029999997,232.0,-40.0,17988.0,-0.13,-0.74,0.0,-0.75,-0.53,34.32,0
1463,0.029999997,232.0,-84.0,18220.0,-0.26,-0.73,0.0,-0.81,-0.54,34.32,0
1464,0.031,232.0,-316.0,18460.0,-0.98,-0.72,0.0,-0.92,-0.53,34.3,0
1465,0.029999997,184.0,-72.0,18136.0,-0.23,-0.58,0.0,-0.98,-0.53,34.31,0
1466,0.031,340.0,-556.0,18256.0,-1.74,-1.07,0.0,-1.09,-0.55,34.28,0
1467,0.031,248.0,-156.0,18284.0,-0.49,-0.78,0.0,-1.22,-0.55,34.26,0
1468,0.031,260.0,-308.0,17972.0,-0.98,-0.83,0.0,-1.43,-0.54,34.25,0
1469,0.028999997,140.0,-520.0,18556.0,-1.61,-0.43,0.0,-1.51,-0.55,34.22,0
1470,0.031,180.0,-484.0,18456.0,-1.5,-0.56,0.0,-1.3,-0.62,34.22,0
1471,0.031,184.0,-636.0,18368.0,-1.98,-0.57,0.0,-1.3,-0.59,34.25,0
1472,0.029999997,4.0,-208.0,18096.0,-0.66,-0.01,0.0,-1.29,-0.53,34.25,0
1473,0.031,124.0,-392.0,18480.0,-1.22,-0.38,0.0,-1.22,-0.54,34.25,0
1474,0.031,112.0,-296.0,17976.0,-0.94,-0.36,0.0,-1.34,-0.5,34.24,0
1475,0.031,264.0,-376.0,18048.0,-1.19,-0.84,0.0,-1.45,-0.5,34.23,0
1476,0.029999997,244.0,-648.0,17964.0,-2.07,-0.78,0.0,-1.56,-0.46,34.22,0
1477,0.031,92.0,-364.0,18100.0,-1.15,-0.29,0.0,-1.63,-0.43,34.22,0
1478,0.029999997,272.0,-540.0,17892.0,-1.73,-0.87,0.0,-1.77,-0.42,34.21,0
1479,0.029999997,200.0,-888.0,18380.0,-2.77,-0.62,0.0,-1.93,-0.43,34.17,0
1480,0.031,140.0,-584.0,18312.0,-1.83,-0.44,0.0,-2.02,-0.42,34.17,0
1481,0.031,492.0,-2168.0,18440.0,-6.7,-1.52,0.0,-2.72,-0.5,34.06,0
1482,0.031,116.0,-656.0,18208.0,-2.06,-0.36,0.0,-2.89,-0.45,34.03,0
1483,0.029999997,84.0,-764.0,18040.0,-2.43,-0.27,0.0,-2.99,-0.42,33.99,0
1484,0.031,12.0,-920.0,18172.0,-2.9,-0.04,0.0,-3.04,-0.41,34.0,0
1485,0.031,84.0,-876.0,18156.0,-2.76,-0.26,0.0,-3.16,-0.39,33.99,0
1486,0.029999997,148.0,-1100.0,18440.0,-3.41,-0.46,0.0,-3.26,-0.38,33.99,0
1487,0.031,52.0,-972.0,18056.0,-3.08,-0.16,0.0,-3.4,-0.33,33.96,0
1488,0.029999997,28.0,-1192.0,18468.0,-3.69,-0.09,0.0,-3.62,-0.28,33.97,0
1489,0.031,132.0,-1076.0,17904.0,-3.44,-0.42,0.0,-3.91,-0.22,33.94,0
1490,0.031,56.0,-1288.0,18156.0,-4.06,-0.18,0.0,-4.18,-0.18,33.82,0
1491,0.031,-8.0,-1380.0,18260.0,-4.32,0.03,0.0,-4.52,-0.11,33.69,0
1492,0.029999997,0.0,-1368.0,18084.0,-4.33,0.0,0.0,-4.65,-0.05,33.66,0
1493,0.029999997,-104.0,-1520.0,18124.0,-4.79,0.33,0.0,-4.78,0.04,33.66,0
1494,0.031,-156.0,-1324.0,18148.0,-4.17,0.49,0.0,-4.9,0.11,33.64,0
1495,0.031,-108.0,-1472.0,17764.0,-4.74,0.35,0.0,-5.0,0.17,33.64,0
1496,0.031,-32.0,-1376.0,17960.0,-4.38,0.1,0.0,-5.06,0.22,33.62,0
1497,0.028999997,4.0,-1600.0,18252.0,-5.01,-0.01,0.0,-5.04,0.24,33.63,0
1498,0.031,-80.0,-1680.0,18108.0,-5.3,0.25,0.0,-5.06,0.26,33.64,0
1499,0.031,-204.0,-1292.0,18180.0,-4.06,0.64,0.0,-5.09,0.28,33.63,0
1500,0.028999997,-64.0,-1576.0,17980.0,-5.01,0.2,0.0,-5.18,0.3,33.63,0
1501,0.031,-84.0,-1864.0,18316.0,-5.81,0.26,0.0,-5.27,0.33,33.62,0
1502,0.031,-8.0,-1632.0,18232.0,-5.12,0.03,0.0,-5.36,0.37,33.61,0
1503,0.029999997,-108.0,-1672.0,18288.0,-5.22,0.34,0.0,-5.38,0.4,33.6,0
1504,0.029999997,-192.0,-1652.0,18032.0,-5.23,0.61,0.0,-5.54,0.45,33.6,0
1505,0.031,-36.0,-1628.0,18124.0,-5.13,0.11,0.0,-5.66,0.46,33.6,0
1506,0.031,8.0,-1780.0,17892.0,-5.68,-0.03,0.0,-5.76,0.48,33.6,0
1507,0.028999997,-136.0,-1852.0,18548.0,-5.7,0.42,0.0,-5.86,0.5,33.61,0
1508,0.031,-184.0,-1840.0,17904.0,-5.87,0.59,0.0,-5.95,0.54,33.6,0
1509,0.031,-280.0,-1700.0,18200.0,-5.34,0.88,0.0,-5.96,0.56,33.6,0
1510,0.031,-84.0,-1952.0,18060.0,-6.17,0.26,0.0,-6.05,0.58,33.59,0
1511,0.029999997,-176.0,-1896.0,18124.0,-5.97,0.55,0.0,-6.08,0.59,33.59,0
1512,0.031,-116.0,-1796.0,18140.0,-5.65,0.36,0.0,-6.12,0.62,33.59,0
1513,0.031,-224.0,-1680.0,18132.0,-5.29,0.7,0.0,-6.2,0.63,33.59,0
1514,0.031,-96.0,-1960.0,18112.0,-6.18,0.3,0.0,-6.32,0.63,33.58,0
1515,0.029999997,428.0,-3500.0,18916.0,-10.48,-1.27,0.0,-6.58,0.5,33.5,0
1516,0.031,-220.0,-1848.0,18220.0,-5.79,0.69,0.0,-6.76,0.57,33.49,0
1517,0.031,-104.0,-2000.0,18196.0,-6.27,0.33,0.0,-6.88,0.59,33.46,0
1518,0.029999997,-320.0,-1940.0,18220.0,-6.08,1.0,0.0,-6.93,0.63,33.46,0
1519,0.031,-232.0,-2140.0,18096.0,-6.74,0.73,0.0,-6.99,0.65,33.44,0
1520,0.031,-180.0,-2124.0,18268.0,-6.63,0.56,0.0,-7.04,0.66,33.45,0
1521,0.031,-160.0,-2228.0,17948.0,-7.08,0.51,0.0,-6.98,0.66,33.45,0
1522,0.029999997,-324.0,-1972.0,18084.0,-6.22,1.02,0.0,-6.97,0.68,33.45,0
1523,0.031,-392.0,-2164.0,17968.0,-6.87,1.24,0.0,-7.06,0.68,33.44,0
1524,0.031,-212.0,-2104.0,18144.0,-6.61,0.66,0.0,-7.16,0.66,33.43,0
1525,0.028999997,-120.0,-2144.0,18132.0,-6.74,0.38,0.0,-7.23,0.65,33.42,0
1526,0.031,-192.0,-2284.0,18284.0,-7.12,0.6,0.0,-7.26,0.67,33.4,0
1527,0.031,-244.0,-2072.0,17920.0,-6.59,0.77,0.0,-7.26,0.71,33.37,0
1528,0.031,-352.0,-2200.0,18056.0,-6.95,1.11,0.0,-7.32,0.74,33.37,0
1529,0.029999997,-204.0,-2124.0,18148.0,-6.67,0.64,0.0,-7.38,0.74,33.37,0
1530,0.031,-228.0,-2132.0,17884.0,-6.8,0.73,0.0,-7.56,0.74,33.37,0
1531,0.031,-140.0,-2316.0,18268.0,-7.23,0.44,0.0,-7.61,0.73,33.36,0
1532,0.029999997,-216.0,-2348.0,18128.0,-7.38,0.68,0.0,-7.65,0.75,33.36,0
1533,0.031,-32.0,-1520.0,16996.0,-5.11,0.11,0.0,-7.83,0.72,33.37,0
1534,0.031,-112.0,-2644.0,17848.0,-8.43,0.36,0.0,-7.94,0.72,33.33,0
1535,0.031,-160.0,-2304.0,17988.0,-7.3,0.51,0.0,-8.01,0.72,33.32,0
1536,0.029999997,-196.0,-2692.0,18060.0,-8.48,0.61,0.0,-8.11,0.73,33.31,0
1537,0.031,-256.0,-2416.0,17952.0,-7.66,0.81,0.0,-8.15,0.75,33.3,0
1538,0.031,-204.0,-2548.0,18240.0,-7.95,0.63,0.0,-8.28,0.76,33.31,0
1539,0.029999997,-152.0,-2460.0,17988.0,-7.79,0.48,0.0,-8.32,0.78,33.3,0
1540,0.031,-176.0,-2644.0,18040.0,-8.34,0.55,0.0,-8.34,0.79,33.31,0
1541,0.031,-308.0,-2624.0,18092.0,-8.25,0.97,0.0,-8.4,0.8,33.28,0
1542,0.031,-296.0,-2420.0,18108.0,-7.61,0.93,0.0,-8.53,0.8,33.27,0
1543,0.029999997,-168.0,-2788.0,18100.0,-8.76,0.53,0.0,-8.6,0.78,33.28,0
1544,0.029999997,-220.0,-2684.0,17948.0,-8.5,0.69,0.0,-8.67,0.8,33.27,0
1545,0.031,-160.0,-2772.0,17748.0,-8.88,0.51,0.0,-8.7,0.82,33.27,0
1546,0.031,-260.0,-4848.0,16840.0,-16.06,0.85,0.0,-9.63,0.78,33.19,0
1547,0.031,-392.0,-2436.0,17796.0,-7.79,1.25,0.0,-9.8,0.85,33.16,0
1548,0.031,-272.0,-2968.0,17916.0,-9.41,0.86,0.0,-9.89,0.89,33.12,0
1549,0.031,-260.0,-2816.0,17688.0,-9.04,0.83,0.0,-10.02,0.93,33.1,0
1550,0.029999997,-276.0,-3012.0,18152.0,-9.42,0.86,0.0,-10.17,0.96,33.09,0
1551,0.031,-280.0,-2972.0,17660.0,-9.55,0.9,0.0,-10.33,1.0,33.06,0
1552,0.031,-312.0,-3060.0,18036.0,-9.63,0.98,0.0,-10.57,1.07,33.0,0
1553,0.031,-328.0,-3380.0,17936.0,-10.67,1.03,0.0,-10.83,1.1,32.95,0
1554,0.031,-400.0,-3340.0,17892.0,-10.57,1.26,0.0,-10.95,1.14,32.91,0
1555,0.031,-348.0,-3132.0,17908.0,-9.92,1.1,0.0,-10.94,1.15,32.9,0
1556,0.032,-388.0,-3244.0,17908.0,-10.27,1.22,0.0,-10.99,1.17,32.9,0
1557,0.031,-452.0,-3220.0,17872.0,-10.21,1.43,0.0,-11.05,1.19,32.88,0
1558,0.029999997,-432.0,-3376.0,17888.0,-10.68,1.36,0.0,-11.17,1.23,32.88,0
1559,0.032,-416.0,-3492.0,17780.0,-11.11,1.32,0.0,-11.33,1.26,32.88,0
1560,0.031,-472.0,-3348.0,17880.0,-10.6,1.49,0.0,-11.47,1.3,32.87,0
1561,0.031,-488.0,-3532.0,17928.0,-11.14,1.53,0.0,-11.59,1.33,32.87,0
1562,0.031,-388.0,-3564.0,17720.0,-11.37,1.23,0.0,-11.63,1.37,32.85,0
1563,0.032,-536.0,-3448.0,17764.0,-10.98,1.7,0.0,-11.74,1.41,32.85,0
1564,0.031,-564.0,-3664.0,17792.0,-11.63,1.78,0.0,-11.92,1.45,32.87,0
1565,0.031,-568.0,-3656.0,17560.0,-11.76,1.81,0.0,-12.29,1.64,32.83,0
1566,0.031,-380.0,-3464.0,17720.0,-11.06,1.21,0.0,-12.56,1.7,32.81,0
1567,0.032,-540.0,-3820.0,17796.0,-12.11,1.7,0.0,-12.95,1.8,32.77,0
1568,0.031,-556.0,-3884.0,17688.0,-12.38,1.76,0.0,-13.24,1.9,32.69,0
1569,0.031,-600.0,-3808.0,17780.0,-12.08,1.89,0.0,-13.51,1.94,32.67,0
1570,0.031,-508.0,-3988.0,17572.0,-12.78,1.61,0.0,-13.66,1.96,32.69,0
1571,0.032,-520.0,-4364.0,17860.0,-13.73,1.62,0.0,-13.66,1.96,32.67,0
1572,0.029999997,-688.0,-3932.0,17668.0,-12.54,2.18,0.0,-13.67,1.98,32.66,0
1573,0.032,-656.0,-4112.0,17632.0,-13.12,2.08,0.0,-13.8,1.97,32.65,0
1574,0.031,-604.0,-4280.0,17584.0,-13.67,1.91,0.0,-13.88,2.01,32.63,0
1575,0.031,-612.0,-4180.0,17620.0,-13.34,1.94,0.0,-13.97,2.06,32.62,0
1576,0.031,-732.0,-4188.0,17752.0,-13.26,2.3,0.0,-14.09,2.12,32.61,0
1577,0.031,-688.0,-4256.0,17556.0,-13.62,2.18,0.0,-14.17,2.16,32.58,0
1578,0.032,-644.0,-4212.0,17552.0,-13.49,2.04,0.0,-14.33,2.2,32.57,0
1579,0.031,-536.0,-4264.0,17608.0,-13.61,1.69,0.0,-14.51,2.22,32.56,0
1580,0.031,-708.0,-4372.0,17536.0,-13.99,2.24,0.0,-14.67,2.23,32.59,0
1581,0.031,-904.0,-3484.0,17880.0,-11.01,2.84,0.0,-14.78,2.43,32.65,0
1582,0.032,-688.0,-4376.0,17352.0,-14.14,2.2,0.0,-15.07,2.51,32.67,0
1583,0.031,-832.0,-4604.0,17576.0,-14.66,2.62,0.0,-15.37,2.6,32.63,0
1584,0.031,-772.0,-4756.0,17380.0,-15.29,2.45,0.0,-15.59,2.67,32.6,0
1585,0.031,-724.0,-4844.0,17360.0,-15.58,2.3,0.0,-15.83,2.72,32.57,0
1586,0.032,-672.0,-4964.0,17144.0,-16.14,2.16,0.0,-16.02,2.77,32.55,0
1587,0.029999997,-896.0,-5000.0,17524.0,-15.9,2.81,0.0,-16.39,2.84,32.51,0
1588,0.032,-680.0,-4980.0,17044.0,-16.28,2.19,0.0,-16.64,2.81,32.44,0
1589,0.031,-872.0,-5228.0,17416.0,-16.69,2.75,0.0,-16.94,2.88,32.39,0
1590,0.031,-664.0,-5296.0,17040.0,-17.25,2.13,0.0,-17.42,2.94,32.31,0
1591,0.031,-820.0,-5424.0,17100.0,-17.58,2.62,0.0,-17.64,3.02,32.3,0
1592,0.031,-872.0,-5392.0,17300.0,-17.29,2.76,0.0,-17.93,3.09,32.26,0
1593,0.032,-816.0,-5560.0,17076.0,-18.02,2.6,0.0,-18.16,3.15,32.23,0
1594,0.031,-868.0,-5692.0,17104.0,-18.38,2.76,0.0,-18.33,3.2,32.23,0
1595,0.031,-960.0,-5648.0,17148.0,-18.2,3.04,0.0,-18.53,3.27,32.23,0
1596,0.031,-996.0,-5844.0,17144.0,-18.79,3.15,0.0,-18.64,3.32,32.24,0
1597,0.032,-928.0,-5740.0,17056.0,-18.57,2.95,0.0,-18.79,3.36,32.13,0
1598,0.029999997,-896.0,-5960.0,16892.0,-19.41,2.86,0.0,-19.01,3.39,32.07,0
1599,0.032,-1016.0,-6064.0,16928.0,-19.68,3.23,0.0,-19.33,3.5,32.01,0
1600,0.031,-1008.0,-6056.0,17040.0,-19.53,3.19,0.0,-19.87,3.66,31.85,0
1601,0.032,-896.0,-6164.0,17200.0,-19.69,2.81,0.0,-20.27,3.84,31.8,0
1602,0.031,-1220.0,-6208.0,16984.0,-20.03,3.86,0.0,-20.38,3.92,31.77,0
1603,0.031,-1072.0,-6128.0,17040.0,-19.74,3.39,0.0,-20.47,3.95,31.75,0
1604,0.032,-1048.0,-6468.0,16864.0,-20.95,3.32,0.0,-20.63,3.97,31.74,0
1605,0.032,-1096.0,-6304.0,16924.0,-20.39,3.47,0.0,-20.82,4.01,31.72,0
1606,0.031,-1148.0,-6404.0,16688.0,-20.95,3.67,0.0,-21.06,4.06,31.7,0
1607,0.031,-1196.0,-6420.0,16868.0,-20.79,3.79,0.0,-21.25,4.13,31.67,0
1608,0.032,-1192.0,-6604.0,16568.0,-21.68,3.82,0.0,-21.69,4.21,31.62,0
1609,0.032,-1108.0,-6672.0,16712.0,-21.72,3.52,0.0,-22.11,4.29,31.55,0
1610,0.029999997,-1128.0,-6780.0,16552.0,-22.23,3.61,0.0,-22.5,4.38,31.5,0
1611,0.032,-1216.0,-6928.0,16724.0,-22.45,3.84,0.0,-22.82,4.47,31.43,0
1612,0.032,-1268.0,-6968.0,16564.0,-22.76,4.04,0.0,-23.05,4.55,31.41,0
1613,0.032,-1336.0,-7128.0,16576.0,-23.2,4.23,0.0,-23.53,4.64,31.34,0
1614,0.029999997,-1424.0,-6296.0,15988.0,-21.42,4.74,0.0,-24.16,4.89,31.11,0
1615,0.032,-1332.0,-7528.0,16476.0,-24.49,4.21,0.0,-24.85,4.96,30.91,0
1616,0.032,-1388.0,-7680.0,16396.0,-25.02,4.38,0.0,-25.2,5.09,30.75,0
1617,0.029999997,-1320.0,-7620.0,16372.0,-24.89,4.18,0.0,-25.31,5.14,30.69,0
1618,0.032,-1360.0,-7832.0,16144.0,-25.8,4.33,0.0,-25.63,5.18,30.64,0
1619,0.032,-1316.0,-7844.0,16008.0,-26.03,4.22,0.0,-25.85,5.21,30.6,0
1620,0.032,-1496.0,-7788.0,16208.0,-25.57,4.76,0.0,-25.92,5.29,30.59,0
1621,0.029999997,-1504.0,-7968.0,16000.0,-26.37,4.81,0.0,-26.14,5.29,30.55,0
1622,0.032,-1348.0,-7660.0,15740.0,-25.87,4.4,0.0,-26.38,5.33,30.49,0
1623,0.032,-1336.0,-8068.0,16000.0,-26.68,4.26,0.0,-26.55,5.37,30.47,0
1624,0.032,-1512.0,-7988.0,15896.0,-26.58,4.86,0.0,-26.82,5.43,30.42,0
1625,0.029999997,-1376.0,-7992.0,15876.0,-26.63,4.43,0.0,-26.93,5.47,30.33,0
1626,0.032,-1452.0,-8100.0,15984.0,-26.78,4.63,0.0,-27.13,5.48,30.25,0
1627,0.032,-1440.0,-8272.0,15848.0,-27.47,4.61,0.0,-27.48,5.48,30.12,0
1628,0.031,-1496.0,-8084.0,16104.0,-26.56,4.75,0.0,-27.86,5.54,30.05,0
1629,0.031,-1316.0,-8596.0,15552.0,-28.84,4.24,0.0,-28.18,5.54,29.98,0
1630,0.032,-1460.0,-8432.0,15792.0,-28.0,4.66,0.0,-28.44,5.58,29.94,0
1631,0.032,-1612.0,-8604.0,15772.0,-28.49,5.13,0.0,-28.66,5.6,29.88,0
1632,0.031,-1544.0,-8668.0,15536.0,-29.04,4.96,0.0,-29.13,5.65,29.74,0
1633,0.031,212.0,-4764.0,17268.0,-15.42,-0.68,0.0,-29.61,5.48,29.08,0
1634,0.032,-1392.0,-8964.0,14996.0,-30.76,4.56,0.0,-29.91,5.55,28.99,0
1635,0.031,-1560.0,-8808.0,15588.0,-29.35,4.98,0.0,-30.09,5.58,28.89,0
1636,0.031,-1348.0,-9016.0,14904.0,-31.07,4.43,0.0,-30.35,5.56,28.78,0
1637,0.032,-1564.0,-9264.0,15596.0,-30.58,4.93,0.0,-30.54,5.59,28.71,0
1638,0.031,-1340.0,-9260.0,15116.0,-31.39,4.32,0.0,-30.78,5.57,28.61,0
1639,0.032,-476.0,-8792.0,15748.0,-29.16,1.51,0.0,-31.79,5.69,28.26,0
1640,0.031,-1632.0,-8928.0,14984.0,-30.64,5.35,0.0,-32.0,5.76,28.1,0
1641,0.031,-1416.0,-9276.0,14940.0,-31.72,4.6,0.0,-32.31,5.7,28.01,0
1642,0.032,-1440.0,-9544.0,15160.0,-32.08,4.6,0.0,-32.38,5.68,27.98,0
1643,0.032,-1236.0,-9460.0,14852.0,-32.41,4.02,0.0,-32.46,5.61,27.96,0
1644,0.029999997,-1548.0,-9724.0,15004.0,-32.81,4.95,0.0,-32.78,5.57,27.92,0
1645,0.032,-1280.0,-9660.0,14888.0,-32.88,4.13,0.0,-33.15,5.56,27.83,0
1646,0.032,-1524.0,-9696.0,14920.0,-32.88,4.9,0.0,-33.66,5.56,27.72,0
1647,0.032,-1548.0,-9432.0,15220.0,-31.66,4.94,0.0,-34.13,5.47,27.61,0
1648,0.029999997,-1292.0,-10380.0,14184.0,-36.08,4.2,0.0,-34.51,5.45,27.56,0
1649,0.032,-1464.0,-10300.0,14176.0,-35.86,4.78,0.0,-34.91,5.48,27.53,0
1650,0.032,-1416.0,-10396.0,14424.0,-35.65,4.55,0.0,-35.23,5.46,27.49,0
1651,0.032,-1232.0,-10364.0,14192.0,-36.04,4.01,0.0,-35.57,5.46,27.46,0
1652,0.031,-1340.0,-10504.0,14196.0,-36.38,4.34,0.0,-35.85,5.46,27.45,0
1653,0.032,-1404.0,-10608.0,14236.0,-36.56,4.52,0.0,-36.17,5.45,27.4,0
1654,0.032,-1388.0,-10564.0,14216.0,-36.49,4.48,0.0,-36.58,5.44,27.37,0
1655,0.032,-1340.0,-11192.0,14100.0,-38.32,4.26,0.0,-37.12,5.59,27.29,0
1656,0.031,-1436.0,-10908.0,13916.0,-37.94,4.64,0.0,-37.45,5.63,27.25,0
1657,0.032,-1436.0,-10820.0,13792.0,-37.96,4.68,0.0,-37.68,5.65,27.21,0
1658,0.032,-1332.0,-10892.0,13688.0,-38.38,4.35,0.0,-37.95,5.65,27.18,0
1659,0.032,-1444.0,-11032.0,13764.0,-38.56,4.68,0.0,-38.24,5.68,27.12,0
1660,0.031,-1268.0,-10920.0,13488.0,-38.87,4.18,0.0,-38.57,5.66,27.06,0
1661,0.032,-1400.0,-11200.0,13492.0,-39.55,4.56,0.0,-38.96,5.69,27.01,0
1662,0.032,-1376.0,-11252.0,13556.0,-39.55,4.47,0.0,-39.32,5.71,26.97,0
1663,0.031,-1440.0,-11264.0,13560.0,-39.56,4.67,0.0,-39.73,5.72,26.91,0
1664,0.032,-1480.0,-11648.0,13404.0,-40.82,4.76,0.0,-40.1,5.75,26.86,0
1665,0.032,-1456.0,-11276.0,13264.0,-40.2,4.78,0.0,-40.38,5.75,26.82,0
1666,0.032,-1376.0,-11572.0,13504.0,-40.45,4.42,0.0,-40.73,5.72,26.79,0
1667,0.031,-1384.0,-11824.0,12332.0,-43.62,4.63,0.0,-41.18,5.73,26.76,0
1668,0.032,-132.0,-12104.0,13824.0,-41.2,0.41,0.0,-43.22,5.96,26.28,0
1669,0.032,-1448.0,-11788.0,12940.0,-42.16,4.73,0.0,-43.59,5.96,26.2,0
1670,0.032,-1268.0,-12128.0,12580.0,-43.81,4.15,0.0,-43.85,5.94,26.15,0
1671,0.031,-1548.0,-12136.0,12976.0,-42.88,4.98,0.0,-43.78,5.88,26.11,0
1672,0.032,-1084.0,-11744.0,12340.0,-43.47,3.64,0.0,-43.86,5.76,26.07,0
1673,0.032,-1352.0,-12356.0,13028.0,-43.33,4.31,0.0,-43.97,5.72,26.03,0
1674,0.032,-1372.0,-12048.0,12632.0,-43.48,4.49,0.0,-44.17,5.7,26.0,0
1675,0.029999997,-1500.0,-12376.0,12796.0,-43.85,4.82,0.0,-44.42,5.7,25.96,0
1676,0.032,-1280.0,-12276.0,12372.0,-44.62,4.2,0.0,-44.73,5.67,25.89,0
1677,0.032,-2972.0,-14944.0,12660.0,-48.97,8.63,0.0,-45.51,5.88,25.65,0
1678,0.032,-1308.0,-12260.0,12004.0,-45.44,4.36,0.0,-45.89,5.86,25.56,0
1679,0.031,-1324.0,-12376.0,12240.0,-45.15,4.35,0.0,-46.19,5.83,25.53,0
1680,0.032,-1428.0,-12488.0,12244.0,-45.37,4.67,0.0,-46.44,5.77,25.44,0
1681,0.032,-1260.0,-12356.0,11976.0,-45.74,4.19,0.0,-46.64,5.69,25.39,0
1682,0.032,-1304.0,-12720.0,11952.0,-46.61,4.27,0.0,-46.83,5.6,25.36,0
1683,0.031,-1276.0,-12608.0,11880.0,-46.54,4.21,0.0,-46.92,5.53,25.31,0
1684,0.032,-1300.0,-12424.0,12004.0,-45.82,4.3,0.0,-46.98,5.49,25.26,0
1685,0.032,-1264.0,-12548.0,12004.0,-46.11,4.16,0.0,-47.1,5.44,25.22,0
1686,0.032,-1248.0,-12736.0,11896.0,-46.8,4.1,0.0,-47.15,5.38,25.18,0
1687,0.031,-1240.0,-12288.0,11888.0,-45.79,4.15,0.0,-47.17,5.37,25.16,0
1688,0.032,-1420.0,-12844.0,12120.0,-46.47,4.6,0.0,-47.36,5.37,25.12,0
1689,0.032,-1200.0,-12704.0,11828.0,-46.9,3.95,0.0,-47.51,5.34,25.07,0
1690,0.032,-1288.0,-12752.0,11820.0,-47.0,4.24,0.0,-47.63,5.31,25.04,0
1691,0.031,-1228.0,-12944.0,11808.0,-47.47,4.01,0.0,-47.82,5.28,25.02,0
1692,0.032,-1312.0,-12800.0,11616.0,-47.6,4.34,0.0,-48.04,5.29,24.99,0
1693,0.032,-1328.0,-12856.0,11496.0,-48.01,4.4,0.0,-48.33,5.32,24.94,0
1694,0.032,-1128.0,-12984.0,11604.0,-48.08,3.71,0.0,-48.61,5.32,24.9,0
1695,0.031,-1224.0,-13140.0,11524.0,-48.59,4.01,0.0,-48.76,5.36,24.9,0
1696,0.032,-1176.0,-12980.0,11664.0,-47.91,3.86,0.0,-48.96,5.39,24.89,0
1697,0.032,-1372.0,-13100.0,11584.0,-48.32,4.49,0.0,-49.31,5.44,24.86,0
1698,0.031,-1388.0,-13156.0,11368.0,-48.96,4.56,0.0,-49.71,5.48,24.8,0
1699,0.032,-1244.0,-13108.0,11252.0,-49.18,4.12,0.0,-49.98,5.49,24.77,0
1700,0.032,-1096.0,-13060.0,11104.0,-49.49,3.66,0.0,-50.35,5.5,24.73,0
1701,0.068,-1368.0,-13444.0,10960.0,-50.59,4.51,0.0,-50.87,5.62,24.65,0
1702,0.067,-1328.0,-13496.0,10776.0,-51.18,4.4,0.0,-51.2,5.67,24.58,0
1703,0.067,-1380.0,-13544.0,10836.0,-51.11,4.55,0.0,-51.58,5.7,24.51,0
1704,0.067,-1352.0,-13584.0,10780.0,-51.35,4.46,0.0,-52.02,5.71,24.42,0
1705,0.068,-1348.0,-13576.0,10844.0,-51.17,4.44,0.0,-52.3,5.75,24.32,0
1706,0.067,-1320.0,-13768.0,10624.0,-52.13,4.34,0.0,-52.51,5.75,24.26,0
1707,0.068,-1312.0,-13856.0,10440.0,-52.79,4.32,0.0,-52.57,5.7,24.22,0
1708,0.068,-1320.0,-13792.0,10312.0,-52.99,4.38,0.0,-52.43,5.69,24.14,0
1709,0.067,-1280.0,-13664.0,10652.0,-51.86,4.23,0.0,-52.06,5.64,24.09,0
1710,0.067,-1268.0,-13720.0,10740.0,-51.75,4.16,0.0,-51.31,5.51,24.07,0
1711,0.032,-1148.0,-13328.0,10924.0,-50.51,3.81,0.0,-50.9,5.38,24.06,0
1712,0.031,-1324.0,-13504.0,10924.0,-50.82,4.36,0.0,-50.69,5.28,24.03,0
1713,0.032,-1164.0,-13464.0,10868.0,-50.93,3.85,0.0,-50.33,5.13,24.0,0
1714,0.032,-1196.0,-13436.0,11080.0,-50.33,3.93,0.0,-49.81,5.0,23.98,0
1715,0.031,-1188.0,-13220.0,10996.0,-50.08,3.95,0.0,-49.42,4.87,23.93,0
